"Time (s)","Linear Acceleration x (m/s^2)","Linear Acceleration y (m/s^2)","Linear Acceleration z (m/s^2)"
5.709463900E-2,0.000000000E0,0.000000000E0,0.000000000E0
6.217016000E-2,9.989738464E-4,1.040649414E-2,-3.031778336E-2
6.724568100E-2,-4.372119904E-3,-1.142501831E-3,-4.825019836E-2
7.232120200E-2,1.983511448E-2,2.297878265E-2,-5.394077301E-2
7.738120200E-2,-9.167194366E-3,4.298686981E-3,-7.237434387E-2
8.246953500E-2,4.412722588E-2,-2.923011780E-4,-4.168558121E-2
8.755203500E-2,1.736128330E-2,-3.432273865E-3,2.579164505E-2
9.263458700E-2,-1.599037647E-2,2.146148682E-2,4.513072968E-2
9.771708700E-2,-4.370188713E-2,1.446390152E-2,-7.562160492E-3
1.027995870E-1,-1.747894287E-2,3.467321396E-2,-3.399562836E-2
1.078638060E-1,-6.121575832E-2,2.540111542E-2,2.845001221E-2
1.129429730E-1,-5.341351032E-2,4.366731644E-2,5.061626434E-2
1.180220870E-1,-5.091714859E-2,2.333498001E-2,7.800245285E-2
1.231012540E-1,-5.319178104E-2,-1.535987854E-2,8.608722687E-2
1.281743270E-1,-4.194200039E-2,-6.783485413E-3,1.589331627E-1
1.332522430E-1,-8.299410343E-2,-4.366827011E-2,1.538858414E-1
1.383301080E-1,-1.941069365E-1,-1.936149597E-1,2.039365768E-1
1.434080770E-1,-3.466010094E-3,-3.737831116E-2,3.198790550E-1
1.484955770E-1,1.049381495E-1,1.012692451E-1,3.039364815E-1
1.535754730E-1,-6.682729721E-2,-3.347301483E-2,3.243575096E-1
1.586553160E-1,-5.964791775E-2,-1.098718643E-1,2.172789574E-1
1.637351600E-1,-3.914403915E-2,-1.028790474E-1,2.435026169E-1
1.687878160E-1,-1.014506817E-2,-1.170692444E-1,2.761001587E-1
1.738621910E-1,3.181600571E-2,-1.034851074E-1,2.874684334E-1
1.789365660E-1,2.178180218E-2,-1.183404922E-1,2.760739326E-1
1.840109410E-1,5.175614357E-2,-1.007542610E-1,2.935109138E-1
1.890981290E-1,5.330288410E-2,-1.210122108E-1,2.394447327E-1
1.941750560E-1,3.445661068E-2,-1.131377220E-1,2.433266640E-1
1.992520350E-1,3.497552872E-2,-8.952951431E-2,2.220330238E-1
2.043290140E-1,7.813930511E-3,-5.060577393E-2,2.017388344E-1
2.094048480E-1,-5.775094032E-2,-1.530647278E-2,2.148098946E-1
2.144815660E-1,-9.567940235E-2,-1.145076752E-2,2.232408524E-1
2.195582850E-1,-1.117688417E-1,1.384735107E-3,2.085499763E-1
2.246350560E-1,-1.324717999E-1,3.930091858E-2,1.666069031E-1
2.297118790E-1,-1.317900419E-1,4.581737518E-2,1.842679977E-1
2.347885980E-1,-1.429834366E-1,4.733800888E-2,1.807885170E-1
2.398653680E-1,-1.308882236E-1,3.703546524E-2,1.729812622E-1
2.449421390E-1,-1.380413771E-1,3.626680374E-2,1.655478477E-1
2.500208370E-1,-1.452848911E-1,6.564617157E-2,1.142539978E-1
2.550979730E-1,-1.245404482E-1,8.496379852E-2,3.861761093E-2
2.601751080E-1,-1.042891741E-1,7.570552826E-2,-1.398229599E-2
2.652522430E-1,-5.892372131E-2,6.877994537E-2,-6.275653839E-2
2.703291700E-1,-4.724180698E-2,8.315372467E-2,-1.338248253E-1
2.754062540E-1,-3.086471558E-2,4.126071930E-2,-1.753664017E-1
2.804833370E-1,-2.874100208E-2,3.351402283E-2,-1.765942574E-1
2.855604200E-1,-4.526293278E-2,4.039573669E-2,-1.477437019E-1
2.906361500E-1,-4.017591476E-2,6.614303589E-2,-1.056876183E-1
2.957129730E-1,1.181936264E-2,1.887750626E-2,-8.348798752E-2
3.007897950E-1,8.943438530E-3,-3.742218018E-3,-5.489397049E-2
3.058665660E-1,3.975152969E-3,-4.476070404E-3,-2.478837967E-2
3.109653160E-1,-3.137564659E-2,2.308082581E-2,4.221487045E-2
3.160465660E-1,-3.786611557E-2,2.438163757E-2,7.025098801E-2
3.211278160E-1,-4.432499409E-2,-1.554489136E-4,1.071352959E-1
3.262090660E-1,-5.331897736E-2,6.398200989E-3,1.526327133E-1
3.312479730E-1,-4.591727257E-2,1.513671875E-2,1.996979713E-1
3.363206810E-1,-5.302107334E-2,2.568721771E-3,1.988515854E-1
3.413933890E-1,-3.458416462E-2,-1.674699783E-2,1.578617096E-1
3.464660980E-1,-4.271876812E-2,-9.546279907E-3,1.407971382E-1
3.515594830E-1,-2.975821495E-2,2.119159698E-2,1.757035255E-1
3.566363580E-1,-4.521286488E-2,1.599740982E-2,1.607236862E-1
3.617132330E-1,-7.201147079E-2,3.889322281E-2,1.298604012E-1
3.667901080E-1,-3.254508972E-2,3.757858276E-2,1.044754982E-1
3.718723480E-1,-3.605389595E-2,4.302406311E-2,1.199536324E-1
3.769503160E-1,-4.170584679E-2,5.277490616E-2,1.167240143E-1
3.820282850E-1,-3.297114372E-2,6.670618057E-2,1.045622826E-1
3.871062020E-1,-3.829324245E-2,3.998279572E-2,5.290508270E-2
3.921812540E-1,-1.734805107E-2,5.132722855E-2,2.188682556E-3
3.972590660E-1,-3.436887264E-2,3.175401688E-2,-2.171325684E-2
4.023368790E-1,-8.439779282E-3,4.801321030E-2,-1.937007904E-2
4.074146910E-1,1.246535778E-2,3.117275238E-2,1.674175262E-3
4.125019310E-1,2.384173870E-2,1.940965652E-2,-4.139375687E-2
4.175802120E-1,1.405847073E-2,3.152990341E-2,-3.900861740E-2
4.226584930E-1,-2.377581596E-2,3.658962250E-2,-4.624843597E-2
4.277368270E-1,-5.397820473E-2,1.570940018E-2,-3.873825073E-3
4.327943790E-1,-7.204747200E-2,1.416301727E-2,2.123165131E-2
4.378716180E-1,-9.940063953E-2,4.574775696E-2,5.307722092E-2
4.429489100E-1,-1.408734322E-1,4.149484634E-2,1.222448349E-1
4.480262020E-1,-1.232033968E-1,2.776098251E-2,1.763052940E-1
4.530863580E-1,-9.428858757E-2,4.478979111E-2,1.895651817E-1
4.581627640E-1,-8.027803898E-2,-1.652574539E-2,1.908426285E-1
4.632391700E-1,-5.018103123E-2,-1.560258865E-2,1.897187233E-1
4.683155770E-1,6.170272827E-4,-2.432918549E-2,1.769084930E-1
4.734151600E-1,-2.268683910E-2,-2.119016647E-2,1.477451324E-1
4.784927640E-1,8.760094643E-3,-3.230571747E-2,1.805143356E-1
4.835703160E-1,4.162459373E-1,-8.361673355E-2,4.307923317E-1
4.886478680E-1,3.149148226E-1,-1.584968567E-1,5.390300751E-1
4.937189620E-1,-7.990670204E-1,1.081466675E-3,-2.980546951E-1
4.987962020E-1,-4.972192049E-1,3.442730904E-1,-1.106410027E-1
5.038734930E-1,2.486969233E-1,1.656618118E-1,4.528980255E-1
5.089507330E-1,-1.717519760E-1,1.238870621E-2,4.651308060E-2
5.140318270E-1,-4.810237885E-2,-2.067089081E-2,1.181893349E-1
5.191092750E-1,-1.133322716E-2,6.055831909E-3,2.788982391E-1
5.241867230E-1,-2.003276348E-2,1.810932159E-2,2.390036583E-1
5.292641700E-1,-7.362723351E-3,6.001472473E-3,2.401571274E-1
5.343344830E-1,-4.476177692E-2,3.204822540E-3,2.297158241E-1
5.394115660E-1,-6.057047844E-2,3.328752518E-2,2.102127075E-1
5.444886500E-1,-5.985772610E-2,4.846334457E-2,2.101960182E-1
5.495657330E-1,-6.171178818E-2,4.894161224E-2,1.559262276E-1
5.546429200E-1,-2.836656570E-2,4.431676865E-2,1.166911125E-1
5.597200040E-1,-1.680958271E-2,5.132102966E-2,9.944295883E-2
5.647970870E-1,-2.893292904E-2,7.485771179E-2,3.499078751E-2
5.698741700E-1,-5.320787430E-3,2.918767929E-2,-1.913928986E-2
5.749527640E-1,5.607402325E-2,2.426338196E-2,-6.083774567E-2
5.800299520E-1,1.195479631E-1,2.196979523E-2,-1.330990791E-1
5.851070870E-1,1.520806551E-1,-8.630752563E-3,-2.023110390E-1
5.901842750E-1,1.801050901E-1,-2.697372437E-2,-2.447452545E-1
5.952596390E-1,1.585799456E-1,-5.918788910E-2,-2.488813400E-1
6.003367230E-1,1.426343918E-1,-3.868532181E-2,-2.933855057E-1
6.054138060E-1,1.109292507E-1,-4.190635681E-2,-3.185286522E-1
6.104908370E-1,9.661114216E-2,-4.471492767E-2,-3.009872437E-1
6.155681290E-1,6.857073307E-2,-1.393651962E-2,-2.814698219E-1
6.206452120E-1,-2.088522911E-2,-4.535675049E-3,-2.386450768E-1
6.257222950E-1,-5.512392521E-2,-1.391649246E-2,-1.633057594E-1
6.307993790E-1,-4.172599316E-2,-6.311416626E-3,-1.008195877E-1
6.358814100E-1,-5.223655701E-2,-1.517248154E-2,-7.235336304E-2
6.409587540E-1,-1.626621485E-1,-9.264802933E-2,-5.624866486E-2
6.460360980E-1,-1.255606413E-1,-1.293034554E-1,7.849740982E-2
6.511133890E-1,2.225531340E-1,1.121482849E-1,7.685661316E-2
6.561889620E-1,6.246924400E-2,-7.068157196E-3,1.836490631E-2
6.612662020E-1,2.702093124E-2,-1.017041206E-1,1.510095596E-2
6.663433890E-1,-2.961587906E-2,-1.016759872E-2,4.975938797E-2
6.714206810E-1,-5.671322346E-2,1.874589920E-2,1.199960709E-1
6.764947950E-1,-3.126478195E-2,3.048324585E-2,5.454874039E-2
6.815718790E-1,-1.327836514E-2,3.488397598E-2,3.248119354E-2
6.866489620E-1,-6.909501553E-2,4.619216919E-2,3.927326202E-2
6.917260450E-1,-6.745743752E-2,4.301261902E-2,2.713203430E-2
6.968005250E-1,-6.335961819E-2,2.792167664E-2,-1.095676422E-2
7.018774520E-1,-4.970228672E-2,4.152250290E-2,-2.263021469E-2
7.069543790E-1,-4.567849636E-2,2.891206741E-2,-5.735874176E-3
7.120313580E-1,-1.567482948E-2,2.362012863E-2,3.778457642E-3
7.171244830E-1,-9.463787079E-3,-5.462169647E-3,1.096820831E-2
7.222022950E-1,3.249526024E-2,-4.849815369E-2,4.421710968E-2
7.272800560E-1,-6.593108177E-3,-7.211542130E-2,5.102252960E-2
7.323578160E-1,1.640450954E-2,-6.463479996E-2,6.725502014E-2
7.374172950E-1,-2.720212936E-2,-7.139444351E-2,8.093118668E-2
7.424941180E-1,-2.537441254E-2,-4.002428055E-2,8.016204834E-2
7.475709930E-1,-1.166486740E-2,-2.558660507E-2,5.568885803E-2
7.526478160E-1,-2.423858643E-2,-3.500127792E-2,3.138828278E-2
7.577274000E-1,-1.781642437E-2,-2.789020538E-2,2.643775940E-2
7.628043790E-1,-1.928567886E-3,-2.309226990E-2,1.666688919E-2
7.678813580E-1,-4.082822800E-2,2.965927124E-3,9.423255920E-3
7.729583370E-1,-4.137921333E-2,-1.399421692E-2,1.416206360E-2
7.780183370E-1,-1.811766624E-2,-1.178026199E-2,4.497766495E-2
7.830783370E-1,-1.634788513E-2,9.489536285E-3,6.601333618E-3
7.881383370E-1,-3.127801418E-2,-2.689838409E-3,-2.195453644E-2
7.931983370E-1,-4.604482651E-2,1.857376099E-2,-4.083919525E-2
7.982583370E-1,-5.593729019E-2,1.829862595E-2,-4.057979584E-2
8.033183370E-1,-9.423124790E-2,2.054977417E-2,-4.283285141E-2
8.083783370E-1,-8.457732201E-2,3.475666046E-2,-5.938243866E-2
8.134383370E-1,-3.234672546E-2,3.211879730E-2,-5.909872055E-2
8.184983370E-1,-2.553820610E-2,-6.092548370E-3,-4.931306839E-2
8.235583370E-1,-3.764235973E-2,1.067018509E-2,-5.859327316E-2
8.286183370E-1,7.350564003E-3,5.940437317E-3,-2.981853485E-2
8.336783370E-1,1.882529259E-2,-1.058530807E-2,-2.029800415E-2
8.387383370E-1,1.863384247E-2,-1.032590866E-2,-4.167938232E-2
8.437983370E-1,9.015917778E-3,-1.481962204E-2,-5.811309814E-2
8.488583370E-1,5.185246468E-2,-2.212524414E-4,-8.393192291E-2
8.539183370E-1,5.885684490E-2,2.512931824E-3,-8.586788177E-2
8.589783370E-1,1.843655109E-2,5.469322205E-4,-7.356882095E-2
8.640383370E-1,-2.883017063E-2,3.501415253E-3,-5.440473557E-2
8.690983370E-1,-4.723846912E-2,6.732940674E-3,-4.814624786E-3
8.741583370E-1,-6.560182571E-2,2.426910400E-2,4.663610458E-2
8.792183370E-1,-7.443881035E-2,2.736473083E-2,7.390975952E-2
8.842783370E-1,-7.144773006E-2,1.846933365E-2,1.010093689E-1
8.893383370E-1,-7.585704327E-2,2.151107788E-2,1.112046242E-1
8.943983370E-1,-7.564175129E-2,-1.362943649E-2,1.071615219E-1
8.994583370E-1,-7.316017151E-2,-1.785469055E-2,1.247510910E-1
9.045183370E-1,-7.311117649E-2,-1.505279541E-2,1.423115730E-1
9.095783370E-1,-7.543826103E-2,-7.653236389E-3,1.479716301E-1
9.146383370E-1,-2.570807934E-2,1.613283157E-2,1.798300743E-1
9.196983370E-1,-2.167630196E-2,1.112127304E-2,1.829667091E-1
9.247583370E-1,-3.911197186E-2,3.561496735E-3,1.387553215E-1
9.298183370E-1,-1.366031170E-2,3.390216827E-2,9.507036209E-2
9.348783370E-1,-2.272129059E-4,2.365684509E-2,6.359720230E-2
9.399383370E-1,4.631316662E-2,1.605510712E-3,4.901838303E-2
9.449983370E-1,2.854716778E-2,1.296710968E-2,1.088809967E-2
9.500583370E-1,2.045297623E-2,-1.148700714E-2,-7.052421570E-4
9.551183370E-1,4.811918736E-2,2.345085144E-3,-5.130290985E-3
9.601783370E-1,3.761851788E-2,1.893043518E-3,-5.708980560E-2
9.652383370E-1,1.131296158E-3,-8.099555969E-3,-7.768011093E-2
9.702983370E-1,1.256859303E-2,1.535081863E-2,-1.385521889E-1
9.753583370E-1,7.304430008E-3,1.499891281E-2,-2.061781883E-1
9.804183370E-1,1.893687248E-2,1.245546341E-2,-2.187185287E-1
9.854783370E-1,4.724752903E-2,3.001689911E-3,-1.980452538E-1
9.905383370E-1,8.912801743E-3,-1.409053802E-3,-1.515889168E-1
9.955983370E-1,-2.440214157E-2,-9.436607361E-4,-1.269955635E-1
1.000658337E0,-3.369951248E-2,-1.228141785E-2,-9.080791473E-2
1.005718337E0,-5.023884773E-2,-1.926898956E-3,-5.280017853E-2
1.010778337E0,-4.540872574E-2,-1.287126541E-2,-1.055383682E-2
1.015838337E0,-4.093050957E-2,-1.657915115E-2,2.738475800E-3
1.020898337E0,-3.641748428E-2,-1.080036163E-2,-2.440166473E-2
1.025958337E0,-2.250719070E-2,-9.983062744E-3,-2.979898453E-2
1.031018337E0,-4.900431633E-2,3.852844238E-4,-4.230737686E-2
1.036078337E0,-5.848467350E-2,3.685426712E-2,-1.671314240E-2
1.041138337E0,-8.681523800E-2,4.222536087E-2,7.749319077E-2
1.046198337E0,-4.369533062E-2,2.288818359E-5,1.281595230E-1
1.051258337E0,-2.008461952E-2,-6.301879883E-3,1.618399620E-1
1.056318337E0,5.592226982E-3,-2.687788010E-2,1.881332397E-1
1.061378337E0,-1.406490803E-2,-4.762077332E-2,1.955270767E-1
1.066438337E0,4.523396492E-3,-7.308673859E-2,1.626296043E-1
1.071498337E0,-1.717448235E-2,-3.906774521E-2,1.040477753E-1
1.076558337E0,-1.482033730E-2,-3.087043762E-3,6.273460388E-2
1.081618337E0,-4.483461380E-4,-3.652477264E-2,1.726961136E-2
1.086678337E0,-1.705837250E-2,-3.154277802E-3,-6.444931030E-3
1.091738337E0,-5.024862289E-2,8.618354797E-3,-1.578855515E-2
1.096798337E0,-4.747855663E-2,1.801490784E-2,9.975433350E-4
1.101858337E0,-4.959106445E-2,-1.056671143E-3,5.629539490E-3
1.106918337E0,-7.336032391E-2,1.432895660E-3,2.438068390E-2
1.111978337E0,-6.140780449E-2,-1.037836075E-2,3.109693527E-2
1.117038337E0,-1.112643480E-1,-7.740497589E-3,3.767871857E-2
1.122098337E0,-1.155703068E-1,-1.462697983E-2,5.608367920E-2
1.127158337E0,-6.050455570E-2,-1.439905167E-2,8.151388168E-2
1.132218337E0,-3.649115562E-3,-3.092718124E-2,7.118558884E-2
1.137278337E0,1.724171638E-2,-4.257583618E-2,4.198408127E-2
1.142338337E0,3.329384327E-2,-1.857900620E-2,1.550197601E-2
1.147398337E0,3.020691872E-2,1.234912872E-2,-2.501773834E-2
1.152458337E0,-1.071929932E-2,3.125858307E-2,-6.052207947E-2
1.157518337E0,-1.338601112E-3,2.639961243E-2,-4.595994949E-2
1.162578337E0,1.273274422E-2,9.726524353E-3,-7.429695129E-2
1.167638337E0,1.978147030E-2,7.565975189E-3,-9.057903290E-2
1.172698337E0,2.430593967E-2,2.452564240E-2,-8.783531189E-2
1.177758337E0,3.847348690E-2,1.011371613E-3,-9.937143326E-2
1.182818337E0,2.768993378E-3,-1.257276535E-2,-8.249092102E-2
1.187878337E0,2.697372437E-2,1.430511475E-4,-8.237648010E-2
1.192938337E0,2.731335163E-2,1.756429672E-2,-7.041931152E-2
1.197998337E0,2.080368996E-2,-1.024341583E-2,-3.953599930E-2
1.203058337E0,1.699399948E-2,-6.807327271E-3,-2.796936035E-2
1.208118337E0,1.464247704E-3,-2.489089966E-2,-1.636314392E-2
1.213178337E0,-4.962503910E-2,9.493827820E-3,1.408529282E-2
1.218238337E0,-7.194304466E-2,5.630016327E-3,7.032680511E-2
1.223298337E0,-7.528960705E-2,-1.950693130E-2,8.321571350E-2
1.228358337E0,-7.179594040E-2,-1.344966888E-2,9.582233429E-2
1.233418337E0,-3.070700169E-2,-2.406167984E-2,1.343502998E-1
1.238478337E0,-9.242177010E-3,-6.181240082E-3,1.226987839E-1
1.243538337E0,-2.839970589E-2,-2.883815765E-2,1.372642517E-1
1.248598337E0,-1.404941082E-2,-1.807641983E-2,1.446309090E-1
1.253658337E0,3.540515900E-5,6.649017334E-3,1.354589462E-1
1.258718337E0,-4.910707474E-3,-2.850914001E-2,1.147804260E-1
1.263778337E0,1.157701015E-2,5.278587341E-3,1.420102119E-1
1.268838337E0,-1.943051815E-2,1.002216339E-2,1.289081573E-1
1.273898337E0,-4.076492786E-2,2.656936646E-3,1.327009201E-1
1.278958337E0,-3.354239464E-2,-2.147626877E-2,1.033606529E-1
1.284018337E0,-5.094647408E-3,-4.072713852E-2,7.430744171E-2
1.289078337E0,-2.445673943E-2,-2.902412415E-2,5.981683731E-2
1.294138337E0,-1.042437553E-2,-2.212810516E-2,3.827524185E-2
1.299198337E0,3.522396088E-3,-1.034736633E-2,-3.314447403E-2
1.304258337E0,-1.819133759E-2,-1.987648010E-2,-3.758955002E-2
1.309318337E0,-1.826846600E-2,6.283283234E-3,-2.057600021E-2
1.314378337E0,-1.111114025E-2,3.662109375E-3,-1.787900925E-2
1.319438337E0,-2.761816978E-2,1.520013809E-2,-5.069065094E-2
1.324498337E0,-1.314079762E-2,2.765178680E-3,-7.599735260E-2
1.329558337E0,-1.284587383E-2,2.367305756E-2,-1.152806282E-1
1.334618337E0,-2.669358253E-2,2.792263031E-2,-1.377158165E-1
1.339678337E0,-5.214989185E-2,2.039003372E-2,-1.552963257E-1
1.344738337E0,-6.775915623E-2,3.674077988E-2,-1.299991608E-1
1.349798337E0,-7.622468472E-2,3.891134262E-2,-1.241421700E-1
1.354858337E0,-8.490550518E-2,6.979846954E-2,-1.186194420E-1
1.359918337E0,-6.526160240E-2,2.701997757E-2,-5.403709412E-2
1.364978337E0,-4.583728313E-2,1.089668274E-2,1.933860779E-2
1.370038337E0,-2.673900127E-2,-1.453399658E-2,3.974294662E-2
1.375098337E0,1.694202423E-3,-5.412197113E-2,5.770874023E-2
1.380158337E0,3.231966496E-2,-4.587888718E-2,1.016783714E-1
1.385218337E0,2.719902992E-2,-4.253911972E-2,9.788513184E-2
1.390278337E0,3.170824051E-2,-2.505302429E-2,5.621051788E-2
1.395338337E0,1.501095295E-2,-1.972579956E-2,7.207536697E-2
1.400398337E0,5.712389946E-3,-1.686525345E-2,5.937910080E-2
1.405458337E0,-3.670561314E-2,-2.108001709E-2,5.623531342E-2
1.410518337E0,-4.063320160E-2,-2.775669098E-2,8.177042007E-2
1.415578337E0,-8.823871613E-3,-2.244806290E-2,9.043359756E-2
1.420638337E0,-4.382836819E-2,-1.246595383E-2,1.014223099E-1
1.425698337E0,-5.951213837E-2,-2.851963043E-3,1.007142067E-1
1.430758337E0,-6.539988518E-2,-1.234006882E-2,5.493593216E-2
1.435818337E0,-8.552777767E-2,1.907348633E-3,7.851171494E-2
1.440878337E0,-8.654880524E-2,6.422042847E-3,6.872272491E-2
1.445938337E0,-1.043357849E-1,2.513837814E-2,4.711389542E-2
1.450998337E0,-6.986081600E-2,1.760053635E-2,3.274440765E-2
1.456058337E0,-4.771530628E-2,1.501131058E-2,7.533931732E-2
1.461118337E0,-2.585148811E-2,7.614135742E-3,4.161262512E-2
1.466178337E0,-1.614320278E-2,1.214694977E-2,4.140853882E-2
1.471238337E0,-6.441235542E-3,2.313613892E-3,6.742620468E-2
1.476298337E0,-2.777075768E-2,2.566576004E-2,4.821825027E-2
1.481358337E0,-2.976894379E-2,2.734994888E-2,3.642225266E-2
1.486418337E0,-2.222585678E-2,3.602027893E-2,1.059484482E-2
1.491478337E0,-4.401206970E-4,3.982543945E-2,3.492212296E-2
1.496538337E0,4.406929016E-3,4.602098465E-2,1.145935059E-2
1.504044327E0,-2.888715267E-2,1.181745529E-2,1.664257050E-2
1.509123233E0,4.531502724E-3,-2.182531357E-2,3.575706482E-2
1.514200056E0,2.575635910E-2,-1.940488815E-2,1.417779922E-2
1.519276931E0,6.384134293E-3,-3.623962402E-4,3.551626205E-2
1.524353754E0,1.110529900E-2,-1.242971420E-2,4.253339767E-2
1.529434848E0,2.762961388E-2,-2.438783646E-2,-2.787113190E-3
1.534511879E0,5.924701691E-3,2.306318283E-2,-1.204299927E-2
1.539588910E0,1.053166389E-2,8.297920227E-3,1.446390152E-2
1.544665993E0,1.981484890E-2,1.738786697E-2,-4.372596741E-3
1.549756045E0,3.843224049E-2,2.399253845E-2,-1.354074478E-2
1.554833754E0,4.730272293E-2,-2.165746689E-2,-1.796150208E-2
1.559903025E0,7.981550694E-2,-5.743408203E-2,-3.897619247E-2
1.564963025E0,8.129847050E-2,-8.109521866E-2,-5.022621155E-2
1.570054014E0,5.902981758E-2,-7.120466232E-2,-8.997535706E-2
1.575140681E0,7.764065266E-2,-3.511476517E-2,-9.382343292E-2
1.580218389E0,8.924818039E-2,-1.828384399E-2,-1.118674278E-1
1.585296098E0,2.955365181E-2,-6.343364716E-3,-1.463737488E-1
1.590373806E0,-2.220690250E-2,-1.334333420E-2,-1.046514511E-1
1.595451462E0,-2.588737011E-2,-1.346111298E-3,-8.218526840E-2
1.600512295E0,-2.032613754E-2,3.185176849E-2,-8.841085434E-2
1.605589118E0,-3.859519958E-2,2.927923203E-2,-6.859207153E-2
1.610665993E0,-3.791248798E-2,3.871345520E-2,-5.621767044E-2
1.615742868E0,-6.610989571E-3,4.580593109E-2,-5.599355698E-2
1.620822035E0,7.691264153E-3,7.900714874E-3,-7.261228561E-2
1.625899066E0,3.128278255E-2,-2.239370346E-2,-3.226041794E-2
1.630976045E0,2.879607677E-2,-1.788139343E-4,-2.068519592E-2
1.636052973E0,2.177441120E-2,2.198791504E-2,2.397346497E-2
1.641132295E0,-4.212772846E-2,2.725219727E-2,5.648374557E-2
1.646209379E0,-6.518232822E-2,4.668331146E-2,7.924365997E-2
1.651286462E0,-5.971968174E-2,3.736591339E-2,9.234046936E-2
1.656363598E0,-6.852173805E-2,2.097654343E-2,1.006078720E-1
1.661438077E0,-5.832004547E-2,1.409053802E-2,1.136660576E-1
1.666515108E0,-4.600417614E-2,4.034566879E-2,9.585142136E-2
1.671592035E0,-7.711291313E-3,2.577352524E-2,1.116409302E-1
1.676669014E0,-2.896010876E-2,1.355743408E-2,9.183883667E-2
1.681748077E0,-6.667196751E-2,1.800584793E-2,7.938766479E-2
1.686825108E0,-8.499145508E-2,2.707958221E-2,1.407833099E-1
1.691902191E0,-1.009503603E-1,5.258941650E-2,1.447219849E-1
1.696979275E0,-6.955814362E-2,3.977489471E-2,1.629042625E-1
1.702051150E0,-3.400361538E-2,3.161191940E-2,1.881718636E-1
1.707127973E0,-2.738618851E-2,2.575111389E-2,1.254320145E-1
1.712204743E0,5.196928978E-3,-1.577806473E-2,1.202797890E-1
1.717281566E0,4.714298248E-2,-4.510688782E-2,1.080989838E-1
1.722327608E0,2.948129177E-2,-4.109573364E-2,9.857988358E-2
1.727402868E0,2.164304256E-2,-1.591253281E-2,6.321668625E-2
1.732478129E0,2.120137215E-3,-3.622865677E-2,4.020309448E-2
1.737553389E0,-3.145372868E-2,-1.360654831E-2,3.638696671E-2
1.742613389E0,-1.014459133E-2,2.058792114E-2,3.270483017E-2
1.747673389E0,-3.610849380E-3,-2.007484436E-4,3.377485275E-2
1.752733389E0,2.792477608E-3,-2.324295044E-2,1.823711395E-2
1.757793389E0,4.698514938E-2,-1.289987564E-2,-3.040885925E-2
1.762853389E0,5.056893826E-2,-2.582073212E-3,-7.391929626E-2
1.767913389E0,4.719471931E-2,-2.780580521E-2,-6.254625320E-2
1.772973389E0,6.544566154E-2,-3.369235992E-2,-7.508277893E-2
1.778033389E0,5.041503906E-2,-3.701496124E-2,-8.998918533E-2
1.783093389E0,1.659083366E-2,-7.018566132E-3,-7.152366638E-2
1.788153389E0,3.302705288E-2,-1.512670517E-2,-6.283521652E-2
1.793213389E0,4.196286201E-3,1.491022110E-2,-4.003047943E-2
1.798273389E0,2.079129219E-2,-7.652759552E-3,-3.394794464E-2
1.803333389E0,4.442524910E-2,-2.280282974E-2,-5.887746811E-2
1.808393389E0,3.453767300E-2,-4.527091980E-3,-4.564762115E-2
1.813453389E0,2.485954762E-2,-2.449083328E-2,-7.518005371E-2
1.818513389E0,2.500092983E-2,-4.188966751E-2,-9.730291367E-2
1.823573389E0,6.809914112E-2,-2.830743790E-2,-9.539222717E-2
1.828633389E0,4.929518700E-2,2.074861526E-2,-1.005239487E-1
1.833693389E0,-7.482886314E-3,3.144264221E-2,-8.431625366E-2
1.838753389E0,-7.061243057E-3,4.689645767E-2,-4.940319061E-2
1.843813389E0,-3.289830685E-2,3.847551346E-2,-5.520486832E-2
1.848873389E0,-8.802294731E-3,8.786678314E-3,-6.579160690E-2
1.853933389E0,5.060434341E-4,1.276588440E-2,-1.713848114E-2
1.858993389E0,-2.364873886E-3,1.688337326E-2,-2.374792099E-2
1.864053389E0,-3.615570068E-2,3.307676315E-2,-1.865959167E-2
1.869113389E0,-1.510775089E-2,2.791452408E-2,-1.615905762E-2
1.874173389E0,3.182554245E-2,3.229665756E-2,-6.570816040E-3
1.879233389E0,2.377021313E-2,1.753139496E-2,-4.076957703E-3
1.884293389E0,3.244614601E-2,-4.246711731E-3,7.915973663E-3
1.889353389E0,4.836201668E-2,-1.155328751E-2,3.169727325E-2
1.894413389E0,5.000352859E-2,1.130104065E-4,6.965065002E-2
1.899473389E0,1.621735096E-2,-1.214790344E-2,7.653045654E-2
1.904533389E0,8.985280991E-3,-2.875328064E-3,6.908655167E-2
1.909593389E0,-3.136038780E-3,2.284622192E-2,6.650304794E-2
1.914653389E0,-2.231323719E-2,5.546617508E-2,7.107305527E-2
1.919713389E0,-5.618333817E-3,4.961538315E-2,5.205106735E-2
1.924773389E0,-1.776182652E-2,1.983404160E-2,3.810119629E-2
1.929833389E0,-1.350402832E-3,4.017400742E-2,4.327201843E-2
1.934893389E0,2.690744400E-2,2.694702148E-2,4.855823517E-2
1.939953389E0,-2.192735672E-3,4.133224487E-3,3.020286560E-2
1.945013389E0,-5.013704300E-3,7.552146912E-3,1.681184769E-2
1.950073389E0,3.474700451E-2,3.242063522E-2,-1.561498642E-2
1.955133389E0,2.656996250E-2,1.923561096E-2,-5.032491684E-2
1.960193389E0,5.410790443E-2,-8.859634399E-4,-7.769060135E-2
1.965253389E0,5.042111874E-2,-1.789093018E-3,-8.827114105E-2
1.970313389E0,5.628013611E-2,-2.818107605E-4,-4.414939880E-2
1.975373389E0,5.499613285E-2,-5.796909332E-3,-7.413911819E-2
1.980433389E0,3.007066250E-2,1.011800766E-2,-7.772588730E-2
1.985493389E0,2.439618111E-2,2.127027512E-2,-3.387737274E-2
1.990553389E0,2.123939991E-2,-1.760339737E-2,-1.645708084E-2
1.995613389E0,3.715288639E-2,-1.529216766E-3,8.411407471E-4
2.000673389E0,1.969492435E-2,4.741668701E-3,-1.034784317E-2
2.005733389E0,4.848718643E-3,-1.291465759E-2,2.145433426E-2
2.010793389E0,2.599501610E-2,-4.209995270E-3,-4.205131531E-2
2.015853389E0,4.703748226E-2,-3.376007080E-4,-5.748939514E-2
2.020913389E0,5.619823933E-2,1.533842087E-2,-3.945922852E-2
2.025973389E0,4.644584656E-2,-2.508163452E-3,-1.665735245E-2
2.031033389E0,2.981221676E-2,2.019214630E-2,-7.003545761E-2
2.036093389E0,1.085066795E-2,2.844142914E-2,-6.834506989E-2
2.041153389E0,1.096391678E-2,3.913593292E-2,-5.256986618E-2
2.046213389E0,1.791930199E-2,4.501485825E-2,-2.751636505E-2
2.051273389E0,8.732080460E-4,1.283073425E-2,-1.696729660E-2
2.056333389E0,-1.857399940E-3,-4.288196564E-2,-3.736829758E-2
2.061393389E0,6.656801701E-2,-1.726913452E-2,-3.634119034E-2
2.066453389E0,8.224725723E-2,-2.733612061E-2,-1.645517349E-2
2.071513389E0,5.747997761E-2,-1.356840134E-2,-3.472232819E-2
2.076573389E0,6.386530399E-2,-2.842235565E-2,-3.381681442E-2
2.081633389E0,2.979409695E-2,-1.931858063E-2,-2.824735641E-2
2.086693389E0,3.410720825E-2,1.354408264E-2,-4.415655136E-2
2.091753389E0,3.379654884E-2,4.372024536E-2,-4.085254669E-2
2.096813389E0,5.017352104E-2,4.741668701E-2,-4.222011566E-2
2.101873389E0,3.555703163E-2,7.487440109E-2,-5.073213577E-2
2.106933389E0,2.366065979E-3,5.934429169E-2,-1.066064835E-1
2.111993389E0,-4.539728165E-3,5.117654800E-2,-9.088182449E-2
2.117053389E0,-2.086448669E-2,2.152633667E-2,-6.799125671E-2
2.122113389E0,1.052904129E-2,2.298259735E-2,-8.801126480E-2
2.127173389E0,5.096280575E-2,2.928876877E-2,-1.008934975E-1
2.132233389E0,1.025617123E-2,2.601242065E-2,-7.089138031E-2
2.137293389E0,4.583108425E-2,6.305694580E-3,-6.745243073E-2
2.142353389E0,3.828799725E-2,-3.210687637E-2,-5.468368530E-2
2.147413389E0,6.871938705E-2,-3.565311432E-3,-8.967161179E-2
2.152473389E0,5.614936352E-2,1.540756226E-2,-8.414411545E-2
2.157533389E0,2.226376534E-2,4.131650925E-2,-9.052038193E-2
2.162593389E0,7.557988167E-3,2.912616730E-2,-1.017398834E-1
2.167653389E0,-2.232193947E-3,4.797840118E-2,-9.628486633E-2
2.172713389E0,2.439498901E-3,4.766511917E-2,-7.420969009E-2
2.177773389E0,1.425778866E-2,1.641273499E-2,-4.274463654E-2
2.182833389E0,7.104158401E-3,1.638555527E-2,-4.009485245E-2
2.187893389E0,2.864480019E-2,2.109527588E-2,-8.915901184E-3
2.192953389E0,6.434774399E-2,1.365327835E-2,1.987600327E-2
2.198013389E0,8.818352222E-2,-9.822845459E-4,-3.633022308E-3
2.203073389E0,7.651710510E-2,2.245235443E-2,-5.531263351E-2
2.208133389E0,5.561113358E-2,3.138828278E-2,-7.559013367E-2
2.213193389E0,4.204201698E-2,4.504203796E-2,-7.197380066E-2
2.218253389E0,-2.111804485E-2,3.023719788E-2,-8.037471771E-2
2.223313389E0,-5.994200706E-2,5.857849121E-2,-4.855966568E-2
2.228373389E0,-7.000756264E-2,5.829238892E-2,-1.238727570E-2
2.233433389E0,-1.038000584E-1,8.889007568E-2,2.346944809E-2
2.238493389E0,-9.957158566E-2,1.002755165E-1,6.841850281E-2
2.243553389E0,-6.962382793E-2,4.964017868E-2,9.167432785E-2
2.248613389E0,-5.187845230E-2,4.911947250E-2,1.172785759E-1
2.253673389E0,-2.014029026E-2,6.994104385E-2,1.403055191E-1
2.258733389E0,-1.726531982E-2,3.819894791E-2,1.347351074E-1
2.263793389E0,-1.213443279E-2,3.512191772E-2,1.031584740E-1
2.268853389E0,-5.702900887E-2,5.826568604E-2,1.430239677E-1
2.273913389E0,-6.356000900E-2,5.033969879E-2,1.611685753E-1
2.278973389E0,-4.651820660E-2,6.124448776E-2,1.722064018E-1
2.284033389E0,-1.572430134E-2,3.147935867E-2,1.618685722E-1
2.289093389E0,9.950637817E-3,-3.097534180E-3,1.328821182E-1
2.294153389E0,2.130389214E-2,2.808570862E-3,8.060073853E-2
2.299213389E0,7.296574116E-2,-1.041698456E-2,1.695728302E-2
2.304273389E0,7.676029205E-2,-2.603673935E-2,-8.003711700E-3
2.309333389E0,7.374250889E-2,-2.491998672E-2,-5.402708054E-2
2.314393389E0,8.288037777E-2,1.716613770E-5,-9.017229080E-2
2.319453389E0,7.540619373E-2,3.420734406E-2,-6.418848038E-2
2.324513389E0,3.463232517E-2,4.440736771E-2,-6.937789917E-2
2.329573389E0,-1.303625107E-2,1.898241043E-2,-6.276178360E-2
2.334633389E0,-1.047527790E-2,3.195285797E-2,-9.201622009E-2
2.339693389E0,-1.295661926E-2,3.773546219E-2,-8.312940598E-2
2.344753389E0,2.237737179E-2,2.680826187E-2,-8.859300613E-2
2.349813389E0,5.488300323E-2,2.790451050E-2,-1.154828072E-1
2.354873389E0,1.014243364E-1,1.016759872E-2,-1.351828575E-1
2.359933389E0,1.215170622E-1,2.182483673E-3,-1.334185600E-1
2.364993389E0,1.296747923E-1,-1.282596588E-2,-1.197991371E-1
2.370053389E0,1.450905800E-1,-1.334095001E-2,-1.182317734E-1
2.375113389E0,1.061154604E-1,-5.878877640E-2,-9.064483643E-2
2.380173389E0,1.150263548E-1,-4.680776596E-2,-7.756376266E-2
2.385233389E0,7.870948315E-2,-5.614089966E-2,-6.000566483E-2
2.390293389E0,6.641376019E-2,-2.499437332E-2,-7.587814331E-2
2.395353389E0,3.759193420E-2,-5.583381653E-2,-6.789779663E-2
2.400413389E0,3.047788143E-2,-6.734323502E-2,-6.002950668E-2
2.405473389E0,3.294420242E-2,-5.983066559E-2,-6.877517700E-2
2.410533389E0,4.437327385E-3,-6.667518616E-2,-6.792354584E-2
2.415593389E0,-9.579539299E-3,-5.675601959E-2,-1.489305496E-2
2.420653389E0,1.427817345E-2,-6.118679047E-2,-1.936721802E-2
2.425713389E0,3.303813934E-2,-7.984256744E-2,-1.908111572E-2
2.430773389E0,4.184961319E-3,-1.149439812E-1,-9.307861328E-3
2.435833389E0,2.308177948E-2,-1.117725372E-1,-2.334547043E-2
2.440893389E0,3.001701832E-2,-8.253288269E-2,-2.533483505E-2
2.445953389E0,1.314640045E-3,-7.974529266E-2,-4.147100449E-2
2.451013389E0,-8.164763451E-3,-7.710933685E-2,-4.310035706E-2
2.458530681E0,-8.344054222E-3,-4.148244858E-2,-7.068061829E-2
2.463607712E0,-2.748095989E-2,-1.759338379E-2,-9.844303131E-2
2.468684743E0,-9.654366970E-2,1.345252991E-2,-9.061384201E-2
2.473761775E0,-9.164309502E-2,1.347351074E-2,-7.352256775E-2
2.478835420E0,-1.107701063E-1,4.023075104E-3,-7.566738129E-2
2.483912243E0,-1.654030085E-1,3.027963638E-2,-9.205102921E-2
2.488989066E0,-1.532411575E-1,3.501605988E-2,-5.853128433E-2
2.494065941E0,-1.438776255E-1,3.259515762E-2,-8.951997757E-2
2.499145525E0,-1.300045252E-1,6.121873856E-2,-1.346831322E-1
2.504222504E0,-1.638101339E-1,1.016469002E-1,-1.772675514E-1
2.509299483E0,-1.760560274E-1,9.452629089E-2,-2.269392014E-1
2.514376410E0,-1.644560099E-1,1.470694542E-1,-2.692823410E-1
2.519470785E0,-2.194104195E-1,1.757273674E-1,-2.949280739E-1
2.524548598E0,-2.810375690E-1,1.829271317E-1,-2.943863869E-1
2.529626462E0,-3.328782320E-1,2.022109032E-1,-3.725581169E-1
2.534704275E0,-1.848410368E-1,1.765098572E-1,-2.413587570E-1
2.539761983E0,-2.516334057E-1,3.173027039E-1,-2.584767342E-1
2.544838858E0,-3.985298872E-1,2.574582100E-1,-3.657746315E-1
2.549915681E0,-3.380659819E-1,1.817536354E-1,-3.989329338E-1
2.554992504E0,-3.089969158E-1,2.877349854E-1,-4.133119583E-1
2.560069014E0,-3.534953594E-1,2.934603691E-1,-3.898696899E-1
2.565145837E0,-3.832745552E-1,2.778635025E-1,-3.904561996E-1
2.570222660E0,-3.818775415E-1,2.983684540E-1,-4.364900589E-1
2.575299483E0,-3.876109123E-1,2.810254097E-1,-4.563260078E-1
2.580369066E0,-4.198728800E-1,2.382583618E-1,-4.909062386E-1
2.585445525E0,-3.857058287E-1,2.748217583E-1,-4.664587975E-1
2.590521983E0,-3.871890306E-1,2.091999054E-1,-3.901410103E-1
2.595598493E0,-4.790655375E-1,1.302785873E-1,-3.790206909E-1
2.600674952E0,-3.379447460E-1,1.045789719E-1,-1.451201439E-1
2.605734952E0,-2.833863497E-1,1.669182777E-1,5.605983734E-2
2.610794952E0,-3.977965117E-1,1.500649452E-1,-1.028232574E-1
2.615854952E0,-3.386859894E-1,-1.832151413E-2,-2.252998352E-1
2.620914952E0,-2.424008846E-1,1.024675369E-2,-1.290063858E-1
2.625974952E0,-2.489513159E-1,6.034946442E-2,-5.760145187E-2
2.631034952E0,-3.147820234E-1,-1.039223671E-1,-2.699232101E-2
2.636094952E0,-2.661470175E-1,-1.316814423E-1,1.224994659E-3
2.641154952E0,-6.297719479E-2,8.057880402E-2,1.506438255E-1
2.646214952E0,-1.556470394E-1,2.219295502E-2,1.972084045E-1
2.651274952E0,-1.861402988E-1,-8.386230469E-2,1.512742043E-1
2.656334952E0,-1.951448917E-1,-1.275749207E-1,2.532706261E-1
2.661394952E0,-2.373849154E-1,-1.427206993E-1,3.095688820E-1
2.666454952E0,-2.178587914E-1,-1.393818855E-1,3.374247551E-1
2.671514952E0,-1.681122780E-1,-1.818561554E-1,3.394150734E-1
2.676574952E0,-1.617940664E-1,-2.338466644E-1,3.345546722E-1
2.681634952E0,-1.155657768E-1,-2.593469620E-1,3.178324699E-1
2.686694952E0,-4.394078255E-2,-2.705998421E-1,3.275094032E-1
2.691754952E0,7.870197296E-4,-3.057103157E-1,3.182525635E-1
2.696814952E0,9.253382683E-3,-3.525834084E-1,2.664284706E-1
2.701874952E0,1.514244080E-2,-3.162140846E-1,2.224135399E-1
2.706934952E0,3.045320511E-2,-2.969288826E-1,1.599035263E-1
2.711994952E0,4.587101936E-2,-2.969183922E-1,1.194620132E-1
2.717054952E0,1.109628677E-1,-2.328672409E-1,6.755971909E-2
2.722114952E0,1.731288433E-1,-2.430567741E-1,3.516006470E-2
2.727174952E0,1.924879551E-1,-2.817759514E-1,-3.000688553E-2
2.732234952E0,1.791638136E-1,-3.367075920E-1,-5.177783966E-2
2.737294952E0,1.904288530E-1,-3.673892021E-1,1.704406738E-2
2.742354952E0,1.999672651E-1,-3.359818459E-1,1.414108276E-2
2.747414952E0,2.268257141E-1,-3.049116135E-1,-1.699256897E-2
2.752474952E0,1.258285046E-1,-2.644739151E-1,3.531789780E-2
2.757534952E0,3.105986118E-2,-2.150158882E-1,9.222507477E-2
2.762594952E0,-2.941119671E-2,-1.732916832E-1,1.393947601E-1
2.767654952E0,-1.013071537E-1,-1.394600868E-1,1.722888947E-1
2.772714952E0,-1.160705090E-1,-8.253383636E-2,1.457581520E-1
2.777774952E0,-1.194187403E-1,-2.167558670E-2,1.125020981E-1
2.782834952E0,-1.398843527E-1,2.413845062E-2,5.353403091E-2
2.787894952E0,-8.479118347E-2,3.862619400E-2,-5.491590500E-2
2.792954952E0,-6.138598919E-2,5.786800385E-2,-1.507759094E-1
2.798014952E0,-1.711106300E-2,6.755495071E-2,-2.174987793E-1
2.803074952E0,5.994939804E-2,7.515954971E-2,-3.006563187E-1
2.808134952E0,1.197000742E-1,6.658983231E-2,-3.598451614E-1
2.813194952E0,1.671465635E-1,6.589746475E-2,-3.977594376E-1
2.818254952E0,2.143439054E-1,6.593179703E-2,-4.003453255E-1
2.823314952E0,2.330118418E-1,7.614088058E-2,-3.749289513E-1
2.828374952E0,2.425427437E-1,2.500772476E-2,-3.239336014E-1
2.833434952E0,2.548446655E-1,-6.231307983E-3,-2.641701698E-1
2.838494952E0,2.484836578E-1,-8.460521698E-3,-1.622605324E-1
2.843554952E0,2.236727476E-1,-5.818462372E-2,-8.721113205E-2
2.848614952E0,2.232400179E-1,-1.195759773E-1,2.788114548E-2
2.853674952E0,2.374494076E-1,-1.379847527E-1,1.542458534E-1
2.858734952E0,2.421504259E-1,-1.663026810E-1,2.278327942E-1
2.863794952E0,2.324548960E-1,-1.712508202E-1,2.562136650E-1
2.868854952E0,2.366708517E-1,-1.884183884E-1,2.798628807E-1
2.873914952E0,2.643293142E-1,-1.416568756E-1,2.204327583E-1
2.878974952E0,2.750577927E-1,-1.430163383E-1,1.901898384E-1
2.884034952E0,2.713493109E-1,-1.230454445E-1,8.184337616E-2
2.889094952E0,2.557272911E-1,-5.332326889E-2,8.600950241E-2
2.894154952E0,2.591608763E-1,-1.719617844E-2,5.665159225E-2
2.899214952E0,2.125464678E-1,-7.188320160E-3,5.853176117E-3
2.904274952E0,2.301442623E-1,7.705688477E-3,9.854316711E-3
2.909334952E0,2.522132397E-1,-3.284454346E-3,6.340503693E-3
2.914394952E0,2.645623684E-1,9.800910950E-3,-2.110624313E-2
2.919454952E0,2.388212681E-1,-2.928733826E-3,-3.443956375E-2
2.924514952E0,2.514761686E-1,1.102399826E-2,-4.088973999E-2
2.929574952E0,2.642660141E-1,1.436233521E-3,-3.326988220E-2
2.934634952E0,2.774194479E-1,1.576662064E-2,2.895689011E-2
2.939694952E0,2.386231422E-1,6.558179855E-2,4.802751541E-2
2.944754952E0,1.980473995E-1,5.080223083E-2,5.040836334E-2
2.949814952E0,1.865892410E-1,3.390312195E-2,8.122205734E-2
2.954874952E0,1.848413944E-1,5.302667618E-2,1.424713135E-1
2.959934952E0,1.118857861E-1,6.969976425E-2,2.862958908E-1
2.964994952E0,9.165787697E-2,4.783582687E-2,3.627281189E-1
2.970054952E0,1.208950281E-1,-7.472991943E-3,4.244785309E-1
2.975114952E0,1.257673502E-1,-1.048707962E-2,4.717679024E-1
2.980174952E0,1.278904676E-1,-7.333040237E-2,4.905028343E-1
2.985234952E0,1.698505878E-1,-8.133459091E-2,4.902553558E-1
2.990294952E0,1.754225492E-1,-7.058620453E-2,5.234675407E-1
2.995354952E0,1.331489086E-1,-9.343719482E-2,5.161857605E-1
3.000414952E0,1.069250107E-1,-8.803510666E-2,4.426517487E-1
3.005474952E0,3.814814091E-1,-1.447625160E-1,6.002116203E-1
3.010534952E0,5.163027644E-1,-7.351398468E-2,6.313042641E-1
3.015594952E0,3.917778730E-1,-3.222513199E-2,3.518381119E-1
3.020654952E0,3.653502464E-1,-2.124352455E-1,2.601284981E-1
3.025714952E0,4.818639755E-1,-8.933734894E-2,2.712740898E-1
3.030774952E0,4.674507976E-1,-1.223659515E-2,2.181887627E-1
3.035834952E0,4.367879033E-1,-5.920076370E-2,1.750116348E-1
3.040894952E0,4.063886404E-1,-3.437471390E-2,1.439619064E-1
3.045954952E0,3.595559597E-1,-1.416826248E-2,1.627564430E-1
3.051014952E0,3.750046492E-1,-4.129838943E-2,1.573715210E-1
3.056074952E0,3.522895575E-1,-2.055406570E-2,1.637883186E-1
3.061134952E0,3.724701405E-1,-5.438566208E-2,1.794457436E-1
3.066194952E0,3.401615620E-1,-9.744930267E-2,1.997270584E-1
3.071254952E0,3.439381123E-1,-1.378598213E-1,1.866903305E-1
3.076314952E0,3.098659515E-1,-1.518306732E-1,1.500701904E-1
3.081374952E0,3.238946199E-1,-1.871418953E-1,1.518907547E-1
3.086434952E0,3.332856894E-1,-2.152895927E-1,1.302070618E-1
3.091494952E0,3.288322687E-1,-1.673231125E-1,7.803440094E-2
3.096554952E0,3.037797213E-1,-1.675081253E-1,2.189064026E-2
3.101614952E0,2.579095364E-1,-1.535334587E-1,4.372119904E-3
3.106674952E0,2.199798822E-1,-9.474802017E-2,3.001642227E-2
3.111734952E0,1.306171417E-1,-5.082416534E-2,3.426456451E-2
3.116794952E0,9.895610809E-2,-4.800558090E-2,1.029100418E-1
3.121854952E0,6.492388248E-2,-5.015611649E-2,1.497211456E-1
3.126914952E0,2.610611916E-2,-2.152252197E-2,1.653013229E-1
3.131974952E0,8.597850800E-3,2.330923080E-2,1.570882797E-1
3.137034952E0,9.703516960E-3,-3.429412842E-3,1.677899361E-1
3.142094952E0,2.207183838E-2,3.196907043E-2,1.662855148E-1
3.147154952E0,4.333603382E-2,2.446174622E-2,1.336917877E-1
3.152214952E0,4.034554958E-2,1.486587524E-2,1.391277313E-1
3.157274952E0,4.922294617E-2,3.246307373E-3,1.229023933E-1
3.162334952E0,5.538141727E-2,-5.771636963E-3,9.240055084E-2
3.167394952E0,5.186796188E-2,-5.154609680E-3,2.169942856E-2
3.172454952E0,5.535340309E-2,5.051612854E-3,1.087045670E-2
3.177514952E0,4.473507404E-2,5.077695847E-2,-3.544139862E-2
3.182574952E0,2.469861507E-2,8.411693573E-2,-1.192688942E-1
3.187634952E0,2.883470058E-2,7.918214798E-2,-1.762290001E-1
3.192694952E0,-1.428210735E-2,6.465673447E-2,-1.565341949E-1
3.197754952E0,-1.230942011E-1,1.761302948E-1,-1.083917618E-1
3.202814952E0,-1.385718584E-1,1.866059303E-1,9.872388840E-2
3.207874952E0,-1.333999634E-1,2.553510666E-2,1.095266342E-1
3.212934952E0,-1.592671871E-1,4.399871826E-2,8.218860626E-2
3.217994952E0,9.036421776E-2,2.900981903E-2,1.453351974E-1
3.223054952E0,7.876574993E-2,-1.461362839E-2,3.245368004E-1
3.228114952E0,2.075600624E-2,-7.216072083E-2,2.383489609E-1
3.233174952E0,9.308624268E-2,-6.494140625E-2,4.281802177E-1
3.238234952E0,7.199096680E-2,-1.078433990E-1,3.243627548E-1
3.243294952E0,4.604589939E-2,-1.550064087E-1,1.594910622E-1
3.248354952E0,1.766736507E-1,-4.079561234E-1,-2.824926376E-2
3.253414952E0,5.371021628E-1,-6.860795021E-1,-1.654949188E-1
3.258474952E0,3.377102017E-1,-2.074689865E-1,1.345911026E-1
3.263534952E0,1.231906414E-1,3.318257332E-1,2.487897873E-1
3.268594952E0,-4.291439056E-2,3.107562065E-1,2.953753471E-1
3.273654952E0,3.330764771E-1,-2.144312859E-1,4.108943939E-1
3.278714952E0,2.687846422E-1,-3.324975967E-1,5.602788925E-2
3.283774952E0,1.365058422E-1,-3.114972115E-1,1.457839012E-1
3.288834952E0,3.404466510E-1,-2.573318481E-1,2.561383247E-1
3.293894952E0,5.480487943E-1,-5.315475464E-1,9.258413315E-2
3.298954952E0,3.535535932E-1,-4.512286186E-1,-1.534843445E-2
3.304014952E0,1.380435228E-1,-2.615394592E-1,-4.061698914E-3
3.309074952E0,1.859347224E-1,-2.781200409E-2,5.903959274E-2
3.314134952E0,4.953661561E-1,-4.962892532E-1,1.307811737E-1
3.319194952E0,4.115110040E-1,-5.777797699E-1,2.582073212E-2
3.326719014E0,3.198354244E-1,-2.584929466E-1,6.398296356E-2
3.331796618E0,2.082252502E-1,3.025579453E-2,2.649407387E-1
3.336858962E0,7.642197609E-2,2.122464180E-1,3.881139755E-1
3.341935785E0,-1.068457365E-1,2.211866379E-1,4.393687248E-1
3.347012608E0,-2.036795616E-1,1.508011818E-1,2.984023094E-1
3.352089379E0,-1.552485228E-1,9.677267075E-2,2.233963013E-1
3.357149379E0,-7.005596161E-2,8.801221848E-2,2.916836739E-1
3.362209379E0,-6.770217419E-2,7.207059860E-2,1.835117340E-1
3.367269379E0,-1.162241697E-1,4.204320908E-2,2.143001556E-2
3.372329379E0,-1.363010406E-1,5.784702301E-2,-3.283452988E-2
3.377389379E0,-1.231262684E-1,1.004424095E-1,-4.693269730E-2
3.382449379E0,-1.338337660E-1,1.057372093E-1,-1.259202957E-1
3.387509379E0,-1.037801504E-1,1.189455986E-1,-2.908563614E-2
3.392569379E0,-6.718003750E-2,1.064233780E-1,9.024286270E-2
3.397629379E0,-4.119455814E-2,1.536927223E-1,2.082276344E-1
3.402689379E0,2.619087696E-2,1.842398643E-1,2.013053894E-1
3.407749379E0,6.054854393E-2,1.718821526E-1,1.252498627E-1
3.412809379E0,-7.587730885E-2,1.716895103E-1,3.518295288E-2
3.417869379E0,-2.573723793E-1,1.313400269E-1,5.483293533E-2
3.422929379E0,-3.235684633E-1,6.301641464E-2,9.316301346E-2
3.427989379E0,-2.913832664E-1,4.515647888E-2,4.336881638E-2
3.433049379E0,-1.973466873E-1,1.317186356E-1,-3.660964966E-2
3.438109379E0,-1.868826151E-1,2.528548241E-1,-6.568479538E-2
3.443169379E0,-2.926473618E-1,3.154087067E-1,-6.312751770E-2
3.448229379E0,-2.623091936E-1,3.457112312E-1,6.596565247E-3
3.453289379E0,-2.329593897E-1,2.797579765E-1,5.743598938E-2
3.458349379E0,-3.073168993E-1,2.610230446E-1,2.047061920E-2
3.463409379E0,-2.971680164E-1,2.275567055E-1,-1.350307465E-2
3.468469379E0,-3.500406742E-1,1.442236900E-1,-1.017541885E-1
3.473529379E0,-3.284667134E-1,7.835054398E-2,-9.428119659E-2
3.478589379E0,-2.639609575E-1,7.251787186E-2,-1.248869896E-1
3.483649379E0,-2.118783593E-1,8.126497269E-2,-1.221733093E-1
3.488709379E0,-3.580503464E-1,1.358571053E-1,5.801439285E-2
3.493769379E0,-4.443993568E-1,1.026606560E-1,3.193373680E-1
3.498829379E0,-4.882529378E-1,3.381729126E-2,6.023850441E-1
3.503889379E0,-5.354533792E-1,5.104541779E-3,8.479719162E-1
3.508949379E0,-4.298505783E-1,5.790710449E-3,1.163938046E0
3.514009379E0,-3.225539923E-1,-2.764301300E-1,1.241544724E0
3.519069379E0,-3.176913857E-1,-7.158508301E-1,9.475684166E-1
3.524129379E0,-3.710830212E-2,-9.965038300E-1,3.557467461E-1
3.529189379E0,2.769019604E-1,-9.351115227E-1,1.326446533E-1
3.534249379E0,4.976774156E-1,-6.762862206E-1,2.198891640E-1
3.539309379E0,4.534295201E-1,-4.709653854E-1,2.820487022E-1
3.544369379E0,2.370250225E-1,-2.667732239E-1,7.731771469E-2
3.549429379E0,1.772997379E-1,1.446580887E-2,2.280621529E-1
3.554489379E0,1.103412509E-1,2.026796341E-1,2.258224487E-1
3.559549379E0,-1.379665136E-1,2.413048744E-1,-3.341531754E-1
3.564609379E0,-5.553394556E-2,2.509269714E-1,-4.117226601E-1
3.569669379E0,-2.770423889E-2,4.668350220E-1,-2.935070992E-1
3.574729379E0,1.516562700E-2,4.587798119E-1,-2.987112999E-1
3.579789379E0,-3.412520885E-2,3.994894028E-1,-5.782165527E-1
3.584849379E0,-1.006487608E-1,4.730725288E-1,-7.668380737E-1
3.589909379E0,-5.874478817E-2,2.822942734E-1,-8.396978378E-1
3.594969379E0,-3.495627642E-2,8.397626877E-2,-8.931112289E-1
3.600029379E0,-7.151931524E-2,6.405305862E-2,-7.328844070E-1
3.605089379E0,-8.984160423E-2,1.701545715E-2,-6.461129189E-1
3.610149379E0,3.443887234E-1,-7.410020828E-1,-5.016088486E-1
3.615209379E0,-5.491673946E-2,-4.623756409E-1,-7.752709389E-1
3.620269379E0,-7.294160128E-1,5.119919777E-1,-6.680464745E-1
3.625329379E0,-6.620399952E-1,1.039373398E0,2.739787102E-1
3.630389379E0,-1.154443622E-1,6.839804649E-1,3.803515434E-1
3.635449379E0,-1.545454860E-1,2.458209991E-1,-2.177405357E-1
3.640509379E0,-2.662204504E-1,2.927923203E-2,-4.921603203E-1
3.645569379E0,-2.854407430E-1,6.546831131E-2,-4.068384171E-1
3.650629379E0,-2.357114255E-1,1.510038376E-1,-5.187172890E-1
3.655689379E0,-1.688854694E-1,2.206006050E-1,-5.594439507E-1
3.660749379E0,-8.859580755E-2,2.998299599E-1,-3.367133141E-1
3.665809379E0,-1.264986396E-1,2.480330467E-1,-5.198287964E-2
3.670869379E0,-5.586346984E-2,8.224821091E-2,-9.005117416E-2
3.675929379E0,-2.849492431E-2,-5.900716782E-2,-2.769470215E-1
3.680989379E0,-1.801956892E-1,1.494836807E-1,-4.022717476E-1
3.686049379E0,7.321399450E-2,-8.020782471E-2,-1.924581528E-1
3.691109379E0,3.396786451E-1,-3.044505119E-1,-2.137889862E-1
3.696169379E0,5.005308390E-1,-8.044991493E-1,-2.825903893E-1
3.701229379E0,-3.382685781E-2,-3.395042419E-1,-3.397426605E-1
3.706289379E0,6.979188323E-2,1.225395203E-1,-4.311418533E-2
3.711349379E0,3.489343226E-1,8.819961548E-2,2.683386803E-1
3.716409379E0,2.649422884E-1,-7.103395462E-2,-1.507611275E-1
3.721469379E0,-8.576413989E-2,-1.414871216E-2,-5.319571495E-1
3.726529379E0,2.964171767E-2,-6.122112274E-2,-3.720359802E-1
3.731589379E0,3.577579260E-1,-4.856109619E-2,-4.510793686E-1
3.736649379E0,3.151239157E-1,-4.544396400E-1,-7.307357788E-1
3.741709379E0,-4.090580344E-2,-3.769021034E-1,-6.845455170E-1
3.746769379E0,-8.044743538E-2,1.937403679E-1,-4.597048759E-1
3.751829379E0,2.253322005E-1,3.236255646E-1,-2.946033478E-1
3.756889379E0,-9.600803256E-2,3.195247650E-1,-1.167163849E-1
3.761949379E0,-2.349309623E-1,1.632108688E-1,-2.846302986E-1
3.767009379E0,-1.929444969E-1,9.605026245E-2,-3.656263351E-1
3.772069379E0,-3.222856820E-1,-1.751470566E-2,-1.541891098E-1
3.777129379E0,-1.793212295E-1,-2.054595947E-2,-4.129886627E-3
3.782189379E0,-1.603916287E-2,-2.844047546E-2,-4.860877991E-3
3.787249379E0,-3.276047409E-1,-7.631301880E-3,-1.244978905E-1
3.792309379E0,-4.433522820E-1,1.181960106E-1,1.791086197E-1
3.797369379E0,-3.879451156E-1,1.931934357E-1,3.802952766E-1
3.802429379E0,-4.000144005E-1,6.532764435E-2,2.094597816E-1
3.807489379E0,-3.386599720E-1,-4.949522018E-2,2.442569733E-1
3.812549379E0,6.821051836E-1,-7.025513649E-1,6.754522324E-1
3.817609379E0,1.156261921E0,-1.657131672E0,5.809149742E-1
3.822669379E0,4.982731044E-1,-1.361086369E0,-2.065730095E-1
3.827729379E0,-4.008991718E-1,-3.404469490E-1,-6.970677376E-1
3.832789379E0,-1.006228685E0,3.942265511E-1,-2.043495178E-1
3.837849379E0,-8.464204073E-1,1.275209427E0,3.981146812E-1
3.842909379E0,-6.439163089E-1,1.533411503E0,6.863360405E-1
3.847969379E0,-7.330642343E-1,1.298935890E0,6.351151466E-1
3.853029379E0,-7.669298649E-1,7.545166016E-1,4.013214111E-1
3.858089379E0,-6.643273830E-1,3.106155396E-1,1.467533112E-1
3.863149379E0,-5.557792187E-1,1.603379250E-1,-1.076936722E-2
3.868209379E0,-4.717829525E-1,1.189551353E-1,-1.551723480E-2
3.873269379E0,-3.766758442E-1,1.167006493E-1,2.923488617E-3
3.878329379E0,-2.301737666E-1,4.143762589E-2,-7.666730881E-2
3.883389379E0,-2.466315627E-1,7.862567902E-3,-8.486652374E-2
3.888449379E0,-3.204310536E-1,6.239414215E-3,-6.513166428E-2
3.893509379E0,-3.968960047E-1,1.465320587E-2,-2.938604355E-2
3.898569379E0,-5.215947628E-1,7.074689865E-2,1.293287277E-1
3.903629379E0,-5.133782029E-1,6.942892075E-2,2.604737282E-1
3.908689379E0,-4.040078819E-1,3.196668625E-2,1.366991997E-1
3.913749379E0,-3.604559898E-1,3.638744354E-3,-6.870126724E-2
3.918809379E0,2.662514150E-1,-8.878035545E-1,-6.705918312E-1
3.923869379E0,5.534846783E-1,-1.231208801E0,-5.632023811E-1
3.928929379E0,-3.082800210E-1,1.853833199E-1,-1.091027260E-1
3.933989379E0,-1.064114571E-1,5.437726974E-1,-4.750347137E-2
3.939049379E0,2.803182006E-1,2.428059578E-1,7.361555099E-2
3.944109379E0,3.979433775E-1,-1.415472031E-1,-4.473600388E-1
3.949169379E0,4.315288067E-1,-2.604527473E-1,-8.388056755E-1
3.954229379E0,3.947764039E-1,-2.486262321E-1,-9.999909401E-1
3.959289379E0,4.331960678E-1,-2.408823967E-1,-8.822517395E-1
3.964349379E0,2.956665754E-1,-2.497029305E-1,-7.343654633E-1
3.969409379E0,1.454941630E-1,-3.109292984E-1,-6.346516609E-1
3.974469379E0,1.639649570E-1,-5.228161812E-1,-6.442627907E-1
3.979529379E0,9.091395140E-2,-3.541707993E-1,-3.943948746E-1
3.984589379E0,-2.079382539E-1,-4.247255325E-1,-1.081357002E-1
3.989649379E0,-2.368217111E-1,-4.146389961E-1,2.757382393E-1
3.994709379E0,-8.617103100E-3,-2.632331848E-2,5.456480980E-1
3.999769379E0,-5.757772923E-2,1.713619232E-1,6.031789780E-1
4.004829379E0,-1.486741900E-1,2.542352676E-1,3.545875549E-1
4.009889379E0,-8.427548409E-2,3.433508873E-1,-1.569843292E-2
4.014949379E0,6.094270945E-2,4.046440125E-1,-2.489900589E-1
4.020009379E0,3.514683247E-2,5.440278053E-1,-2.356414795E-1
4.025069379E0,-8.979082108E-3,4.929451942E-1,-2.012791634E-1
4.030129379E0,2.807784081E-2,3.528633118E-1,-1.008429527E-1
4.035189379E0,8.944809437E-2,1.691293716E-1,1.478672028E-3
4.040249379E0,8.384060860E-2,1.272773743E-2,1.251130104E-1
4.045309379E0,6.794518232E-2,-6.751871109E-2,3.251032829E-1
4.050369379E0,3.257244825E-2,-1.252193451E-1,5.752696991E-1
4.055429379E0,-1.074315906E-1,-1.093583107E-1,7.643914223E-1
4.060489379E0,-1.807571650E-1,-5.707883835E-2,8.009662628E-1
4.065549379E0,-9.792202711E-2,-1.069941521E-1,6.011209488E-1
4.070609379E0,1.309793591E-1,-2.013139725E-1,1.835699081E-1
4.078109848E0,3.320066929E-1,-1.664981842E-1,-1.782689095E-1
4.083187348E0,4.537490308E-1,-1.129016876E-1,-4.350347519E-1
4.088264848E0,5.061340928E-1,-6.973171234E-2,-5.415263176E-1
4.093332868E0,4.641289413E-1,4.404306412E-2,-5.061998367E-1
4.098409952E0,3.588049114E-1,8.024597168E-2,-3.941793442E-1
4.103486983E0,1.370772719E-1,2.197685242E-1,-2.891159058E-1
4.108564014E0,-6.662487984E-2,3.286609650E-1,2.035808563E-2
4.113636045E0,-2.367262244E-1,3.405070305E-1,4.444484711E-1
4.118712816E0,-3.573399782E-1,2.748255730E-1,7.778234482E-1
4.123789639E0,-4.711114168E-1,1.888327599E-1,1.009476185E0
4.128866358E0,-5.340587497E-1,1.035976410E-1,1.223618507E0
4.133954170E0,-5.090855360E-1,9.053754807E-2,1.253921509E0
4.139031514E0,-4.037968516E-1,1.402163506E-1,1.158451080E0
4.144108858E0,-3.152850866E-1,2.336254120E-1,8.334627151E-1
4.149186202E0,-4.380952120E-1,2.881727219E-1,4.467501640E-1
4.154266670E0,-5.850228071E-1,3.379116058E-1,2.861862183E-1
4.159344223E0,-5.766502619E-1,3.260817528E-1,2.191729546E-1
4.164421723E0,-3.694741726E-1,1.963481903E-1,1.212410927E-1
4.169499170E0,9.169059992E-2,-1.642999649E-1,4.249811172E-2
4.174578181E0,9.435873032E-1,-1.081594467E0,2.551984787E-2
4.179655733E0,1.010987401E0,-1.112932205E0,1.025891304E-1
4.184733337E0,9.595062733E-1,-1.176618576E0,1.239385605E-1
4.189810889E0,9.841741920E-1,-1.292174339E0,2.476263046E-1
4.194870212E0,9.601104856E-1,-1.396645069E0,3.911099434E-1
4.199946879E0,9.402782917E-1,-1.404978275E0,1.700453758E-1
4.205023545E0,8.328256607E-1,-1.401519775E0,-1.466479301E-1
4.210100212E0,6.911619902E-1,-1.482386589E0,-3.694715500E-1
4.215165993E0,4.168042839E-1,-1.525410652E0,-4.627094269E-1
4.220242139E0,4.617914557E-2,-1.432300091E0,-5.104160309E-1
4.225318233E0,-3.779038191E-1,-1.332277298E0,-2.113094330E-1
4.230394379E0,-6.975883245E-1,-1.166144848E0,-2.242040634E-2
4.235454379E0,-8.238034248E-1,-9.957733154E-1,-2.167353630E-1
4.240514379E0,-6.323752999E-1,-8.506827354E-1,-1.920986176E-1
4.245574379E0,-2.997762263E-1,-7.544088364E-1,-2.696914673E-1
4.250634379E0,5.630207062E-2,-3.447818756E-1,-7.395257950E-1
4.255694379E0,2.570612729E-1,3.800916672E-2,-7.080845833E-1
4.260754379E0,2.981229722E-1,2.793622017E-1,-6.857776642E-1
4.265814379E0,2.967766523E-1,5.378489494E-1,-7.973699570E-1
4.270874379E0,2.769404650E-1,4.960603714E-1,-5.002884865E-1
4.275934379E0,2.862877846E-1,8.588790894E-2,-4.422693253E-1
4.280994379E0,3.317610025E-1,-4.201788902E-1,-6.487479210E-1
4.286054379E0,6.489337683E-1,-9.423141479E-1,-3.448801041E-1
4.291114379E0,1.218399405E0,-1.618446827E0,-3.171200752E-1
4.296174379E0,1.979388356E0,-2.048157692E0,-1.116292000E0
4.301234379E0,2.499652386E0,-2.127343655E0,-1.603847980E0
4.306294379E0,2.550327539E0,-2.264762402E0,-1.307233334E0
4.311354379E0,2.472575903E0,-2.348809242E0,-1.935217381E0
4.316414379E0,2.229697466E0,-2.074753284E0,-2.324778557E0
4.321474379E0,1.901993155E0,-1.952178001E0,-1.665615559E0
4.326534379E0,1.861344695E0,-1.821311474E0,-2.303278923E0
4.331594379E0,1.575309873E0,-1.393199444E0,-1.711330414E0
4.336654379E0,9.288914204E-1,-9.596199989E-1,-1.451841831E0
4.341714379E0,2.189492434E-1,-7.148079872E-1,-3.468289375E-1
4.346774379E0,-2.672383189E-1,-6.109471321E-1,-5.998420715E-2
4.351834379E0,-6.836618185E-1,-1.018395424E0,4.575119019E-1
4.356894379E0,-7.297462225E-1,-1.938111305E0,8.818268776E-1
4.361954379E0,3.526002914E-2,-2.165251732E0,1.104877472E0
4.367014379E0,6.560720801E-1,-2.006423950E0,1.069234848E0
4.372074379E0,4.145787954E-1,-2.244222164E0,9.474878311E-1
4.377134379E0,9.878338873E-2,-2.471710205E0,6.135358810E-1
4.382194379E0,-1.285994798E-1,-2.623599529E0,5.601115227E-1
4.387254379E0,-6.394439936E-1,-2.780806065E0,6.884789467E-1
4.392314379E0,-1.099251151E0,-2.985598564E0,9.213514328E-1
4.397374379E0,-1.040199876E0,-3.281974792E0,8.460326195E-1
4.402434379E0,-3.617058694E-1,-3.457201719E0,4.945516586E-1
4.407494379E0,5.758634806E-1,-3.468453407E0,-9.206008911E-2
4.412554379E0,1.483712435E0,-3.334620237E0,-9.001178741E-1
4.417614379E0,2.513412714E0,-2.938107491E0,-1.224977016E0
4.422674379E0,2.567795277E0,-2.175747395E0,-5.064892769E-1
4.427734379E0,1.837963700E0,-1.057678699E0,8.855423927E-1
4.432794379E0,1.254806280E0,-3.562870026E-1,1.624769688E0
4.437854379E0,1.436393499E0,6.847200394E-1,1.997624874E0
4.442914379E0,3.205433846E0,4.210459709E0,2.273304939E0
4.447974379E0,4.559981823E0,6.397860050E0,1.251830101E0
4.453034379E0,4.832986355E0,6.868287086E0,-6.559066772E-1
4.458094379E0,4.134387016E0,6.516795158E0,-2.135878325E0
4.463154379E0,2.594885349E0,5.787644386E0,-2.913189650E0
4.468214379E0,2.613985538E-2,4.784307003E0,-2.950599432E0
4.473274379E0,-2.392243862E0,3.708869934E0,-2.312653065E0
4.478334379E0,-2.339697361E0,2.247973442E0,7.528781891E-3
4.483394379E0,-9.189724326E-1,9.860343933E-1,3.230820656E0
4.488454379E0,-3.081719577E-1,6.299080849E-1,5.986167908E0
4.493514379E0,-2.964727581E-1,5.791516304E-1,7.302960873E0
4.498574379E0,-3.486363888E-1,4.345970154E-1,7.611096859E0
4.503634379E0,-2.584226131E-1,7.855606079E-2,7.850747108E0
4.508694379E0,2.120301127E-1,-6.181635857E-1,7.355432987E0
4.513754379E0,9.554722309E-1,-1.614047527E0,6.542414188E0
4.518814379E0,2.108666658E0,-2.709263325E0,5.595492363E0
4.523874379E0,3.295214415E0,-3.639466286E0,4.568830490E0
4.528934379E0,4.152080059E0,-4.023649216E0,4.012300968E0
4.533994379E0,4.576411247E0,-3.964984894E0,4.090865612E0
4.539054379E0,4.689793587E0,-3.838028908E0,4.950106621E0
4.544114379E0,4.244778633E0,-3.431513309E0,6.977334023E0
4.549174379E0,2.880517006E0,-3.412730694E0,1.112299538E1
4.554234379E0,3.240199387E-1,-2.299998283E0,1.448610115E1
4.559294379E0,-2.410621881E0,-2.691727638E0,1.059674740E1
4.564354379E0,-1.714600921E0,-6.725679398E0,9.283500671E0
4.569414379E0,-1.081375241E0,-9.936838150E0,9.522581100E0
4.574474379E0,-7.327334881E-1,-1.243508911E1,9.972571373E0
4.579534379E0,-5.969688892E-1,-1.396987534E1,1.019660568E1
4.584594379E0,-6.331659555E-1,-1.434049988E1,1.004981232E1
4.589654379E0,-1.213323474E0,-1.322833061E1,9.126669884E0
4.594714379E0,-1.792405486E0,-1.179642105E1,8.386055946E0
4.599774379E0,-1.773915052E0,-1.086102962E1,7.166909695E0
4.604834379E0,-1.389761448E0,-1.071202660E1,5.243281364E0
4.609894379E0,-4.853420258E0,-1.013326836E1,-9.418306351E0
4.614954379E0,-1.290798187E1,-5.449206829E0,-4.663316727E1
4.620014379E0,-1.010491371E1,-2.074716568E0,-5.382371902E1
4.625074379E0,-2.672506332E0,9.772586823E-1,-6.709526825E1
4.630134379E0,-4.012723446E0,7.793893814E-1,-3.832982254E1
4.635194379E0,-4.316044807E0,9.630069733E-1,-9.654874802E0
4.640254379E0,-3.068169117E0,1.785723686E0,-4.371316910E0
4.645314379E0,-3.715566874E0,1.239009857E0,-3.774817467E0
4.650374379E0,-4.379473209E0,7.477264404E-1,-3.065348387E0
4.655434379E0,-4.122290611E0,-3.469257355E-1,-2.877138138E0
4.660494379E0,-3.186559439E0,-1.590420246E0,-2.585732937E0
4.665554379E0,-1.845988035E0,-2.365990639E0,-1.408010721E0
4.670614379E0,-4.050779939E-1,-2.703153133E0,-8.055233955E-2
4.675674379E0,6.820149422E-1,-2.692654610E0,8.905720711E-1
4.680734379E0,1.474869490E0,-2.479504585E0,1.552530527E0
4.685794379E0,1.910821915E0,-2.151211262E0,2.075381994E0
4.690854379E0,2.034800291E0,-1.544182777E0,2.997322321E0
4.695914379E0,1.840664625E0,-8.253479004E-1,4.149480820E0
4.700974379E0,1.699990511E0,8.209419250E-2,5.618790627E0
4.706034379E0,1.788562536E0,1.111394882E0,7.605415344E0
4.711094379E0,1.745433688E0,2.254409790E0,7.926206589E0
4.716154379E0,1.078058243E0,3.447864532E0,5.689547539E0
4.721214379E0,-3.225294948E-1,4.456490517E0,2.316817045E0
4.726274379E0,-1.785681009E0,5.031546593E0,-3.041758537E-1
4.731334379E0,-2.443275452E0,5.147190094E0,-2.474059582E0
4.736394379E0,-2.205372334E0,4.548388481E0,-3.877234936E0
4.741454379E0,-1.461281896E0,2.430933952E0,-3.829477549E0
4.746514379E0,-1.066035390E0,-1.289739609E-1,-3.206895113E0
4.751574379E0,-7.638190985E-1,-1.075107574E0,-2.736641169E0
4.756634379E0,-4.550432563E-1,-8.517360687E-1,-2.588696480E0
4.761694379E0,4.455494881E-2,-5.559034348E-1,-2.415249109E0
4.766754379E0,4.774324298E-1,-2.928514481E-1,-2.355106592E0
4.771814379E0,7.894648314E-1,-9.096050262E-2,-2.256839275E0
4.776874379E0,8.764175177E-1,-2.872848511E-2,-2.236913443E0
4.781934379E0,7.361241579E-1,-2.159194946E-1,-2.213595629E0
4.786994379E0,5.384442806E-1,-3.411035538E-1,-2.038293839E0
4.792054379E0,3.955751657E-1,-3.205509186E-1,-1.859358072E0
4.797114379E0,4.099263549E-1,-4.750833511E-1,-1.607569456E0
4.802174379E0,8.025072813E-1,-6.776409149E-1,-1.299984217E0
4.807234379E0,3.075346947E-1,-7.582654953E-1,-1.126119852E0
4.812294379E0,2.468028665E-2,-7.555732727E-1,-9.213171005E-1
4.817354379E0,-5.545657873E-2,-8.204364777E-1,-8.484482765E-1
4.822414379E0,3.626376390E-2,-8.355474472E-1,-7.710449696E-1
4.827474379E0,1.762559116E-1,-8.247785568E-1,-5.859556198E-1
4.832534379E0,4.873812199E-1,-6.972522736E-1,-5.039005280E-1
4.837594379E0,6.281395555E-1,-5.151548386E-1,-5.098958015E-1
4.842654379E0,6.656965017E-1,-3.956165314E-1,-3.567769527E-1
4.847714379E0,6.185420752E-1,-3.384218216E-1,-1.661961079E-1
4.852774379E0,6.150812507E-1,-1.184425354E-1,-1.074595451E-1
4.857834379E0,6.587978601E-1,1.469306946E-1,-1.131329536E-1
4.862894379E0,6.675987840E-1,2.783403397E-1,-7.975792885E-2
4.867954379E0,4.501392841E-1,2.020368576E-1,-5.917811394E-2
4.873014379E0,1.785474122E-1,-1.916875839E-1,-1.778202057E-1
4.878074379E0,1.105978414E-1,-5.434455872E-1,-1.646971703E-1
4.883134379E0,4.308506846E-1,-4.153881073E-1,-1.254272461E-2
4.888194379E0,1.640553474E0,8.571615219E-1,5.062582493E-1
4.893254379E0,1.192255259E0,3.825998306E-1,9.442090988E-2
4.898314379E0,4.634036422E-1,-2.438468933E-1,-1.618249416E-1
4.903374379E0,8.209822327E-2,-5.772457123E-1,-1.294860840E-1
4.908434379E0,-1.970913112E-1,-6.589012146E-1,-9.925198555E-2
4.913494379E0,-2.912496030E-1,-4.534826279E-1,-1.843357086E-1
4.918554379E0,-1.863523871E-1,-2.245693207E-1,-2.196636200E-1
4.923614379E0,-6.011724472E-3,-2.952413559E-1,-3.586661816E-1
4.928674379E0,1.497226357E-1,-4.617786407E-1,-4.553565979E-1
4.933734379E0,1.570807695E-1,-5.326433182E-1,-3.494763374E-1
4.938794379E0,1.741788387E-1,-5.582799911E-1,-2.999718189E-1
4.943854379E0,9.462957084E-2,-3.498058319E-1,-3.404748440E-1
4.948914379E0,6.344984472E-2,-1.084356308E-1,-3.965220451E-1
4.956426098E0,6.931781024E-2,2.304077148E-2,-3.781189919E-1
4.961503077E0,6.459448487E-2,-1.153278351E-2,-2.991633415E-1
4.966580004E0,1.100211218E-1,-8.911705017E-2,-2.108018398E-1
4.971656618E0,1.744929403E-1,-1.258430481E-1,-1.247479916E-1
4.976733598E0,2.533182800E-1,-1.814956665E-1,-1.268637180E-1
4.981810525E0,3.416772187E-1,-2.105598450E-1,-1.212162971E-1
4.986887452E0,4.159548283E-1,-2.800321579E-1,-1.005618572E-1
4.991947452E0,4.762359262E-1,-2.845315933E-1,-2.058739662E-1
4.997007452E0,3.812519908E-1,-1.691904068E-1,-2.243173122E-1
5.002067452E0,2.742914557E-1,4.662513733E-2,-3.715472221E-1
5.007127452E0,1.281613708E-1,2.526645660E-1,-4.011192322E-1
5.012187452E0,-9.588405490E-2,2.790536880E-1,-3.418760300E-1
5.017247452E0,-1.132296622E-1,1.881265640E-1,-3.306069374E-1
5.022307452E0,9.039609134E-2,7.814121246E-2,-3.504383564E-1
5.027367452E0,2.666011155E-1,-3.073692322E-3,-3.608953953E-1
5.032427452E0,3.490531147E-1,-7.235050201E-2,-2.952399254E-1
5.037487452E0,3.647564948E-1,-9.135913849E-2,-1.318862438E-1
5.042547452E0,3.476796448E-1,-1.701564789E-1,-1.912617683E-2
5.047607452E0,3.722979426E-1,-1.675348282E-1,-2.162432671E-2
5.052667452E0,3.907697201E-1,-1.337318420E-1,-8.863139153E-2
5.057727452E0,3.905775547E-1,-9.274101257E-2,-9.329748154E-2
5.062787452E0,2.467316240E-1,-5.176830292E-2,-4.525423050E-2
5.067847452E0,8.808451891E-2,-6.576061249E-2,-6.408929825E-3
5.072907452E0,1.298553050E-1,-9.634494781E-2,1.023290157E-1
5.077967452E0,2.905625701E-1,-9.798812866E-2,2.427933216E-1
5.083027452E0,3.674034476E-1,-8.027458191E-2,3.383672237E-1
5.088087452E0,4.136063159E-1,-7.190895081E-2,3.197562695E-1
5.093147452E0,5.322583914E-1,-8.249092102E-2,2.395496368E-1
5.098207452E0,5.682404041E-1,-9.527587891E-2,1.431066990E-1
5.103267452E0,4.930373728E-1,-1.078996658E-1,-2.952361107E-2
5.108327452E0,-1.402390003E-2,-4.576635361E-1,-3.713612556E-1
5.113387452E0,-3.668846786E-1,-1.799936295E-1,-4.611020088E-1
5.118447452E0,6.614097953E-2,6.308326721E-1,-3.400385380E-1
5.123507452E0,4.560314417E-1,2.755155563E-1,-7.091913223E-1
5.128567452E0,5.202659965E-1,1.649551392E-1,-9.237971306E-1
5.133627452E0,2.931691408E-1,6.002607346E-1,-5.608191490E-1
5.138687452E0,1.496276259E-1,5.637350082E-1,-3.990678787E-1
5.143747452E0,3.161621094E-1,3.573713303E-1,-5.364406109E-1
5.148807452E0,3.366762996E-1,2.685508728E-1,-5.538797379E-1
5.153867452E0,1.011312008E-3,-1.902580261E-3,-5.949962139E-1
5.158927452E0,2.226092815E-1,2.399091721E-1,-5.022413731E-1
5.163987452E0,1.766973138E-1,9.867286682E-2,-3.952326775E-1
5.169047452E0,-4.366534948E-2,-3.039646149E-2,-3.696660995E-1
5.174107452E0,3.574714661E-1,3.406476974E-1,-2.437984943E-1
5.179167452E0,5.596095920E-1,2.757968903E-1,-2.377417088E-1
5.184227452E0,7.137439251E-1,3.331117630E-1,-1.405813694E-1
5.189287452E0,6.933319569E-1,2.971487045E-1,-1.078553200E-1
5.194347452E0,4.940921664E-1,2.422857285E-1,-3.392982483E-2
5.199407452E0,2.309990227E-1,1.375036240E-1,-3.346395493E-2
5.204467452E0,6.427085400E-2,1.814231873E-1,-1.309204102E-2
5.209527452E0,-2.758517265E-1,-1.848506927E-2,1.031923294E-2
5.214587452E0,-2.394769788E-1,2.842998505E-2,1.493453979E-2
5.219647452E0,-1.354495287E-1,8.024120331E-2,-1.116545200E-1
5.224707452E0,-1.743968129E-1,-5.925655365E-2,-2.903947830E-1
5.229767452E0,-1.553793550E-1,-7.048606873E-3,-4.590754509E-1
5.234827452E0,-3.246470094E-1,-1.246738434E-1,-5.437235832E-1
5.239887452E0,-2.544651031E-1,-1.129465103E-1,-5.565478802E-1
5.244947452E0,-8.699595928E-2,-1.468076706E-1,-6.007759571E-1
5.250007452E0,-2.690305710E-1,-5.132112503E-1,-6.403541565E-1
5.255067452E0,-4.318666458E-1,-6.878118515E-1,-6.825153828E-1
5.260127452E0,-8.621426821E-1,-1.060832977E0,-7.609186172E-1
5.265187452E0,-1.141384602E0,-9.693565369E-1,-7.272245884E-1
5.270247452E0,-1.103429914E0,-7.897882462E-1,-6.656925678E-1
5.275307452E0,-7.738783956E-1,-6.397895813E-1,-5.507791042E-1
5.280367452E0,-5.998668671E-1,-7.704772949E-1,-2.772223949E-1
5.285427452E0,-3.727474213E-1,-7.101001740E-1,1.380991936E-2
5.290487452E0,6.081146002E-2,-5.305852890E-1,4.262280464E-2
5.295547452E0,1.943765879E-1,-4.973688126E-1,-5.099153519E-2
5.300607452E0,3.848865926E-1,-4.140014648E-1,-1.350195408E-1
5.305667452E0,4.190552235E-1,-2.973976135E-1,-8.633279800E-2
5.310727452E0,3.721875846E-1,-1.719999313E-1,-6.082701683E-2
5.315787452E0,3.617921770E-1,-1.113777161E-1,-2.702736855E-2
5.320847452E0,3.587198257E-2,-2.527046204E-1,-1.058647633E-1
5.325907452E0,-9.277027845E-2,-1.406688690E-1,-2.229373455E-1
5.330967452E0,-2.496952415E-1,-4.141569138E-1,-4.423389435E-1
5.336027452E0,-2.095724344E-1,-3.004484177E-1,-4.667015076E-1
5.341087452E0,-2.829489708E-1,-4.182472229E-1,-4.860856533E-1
5.346147452E0,3.010267019E-2,-1.219606400E-1,-5.199761391E-1
5.351207452E0,3.399715424E-1,-2.463541031E-1,-6.417114735E-1
5.356267452E0,-2.519326210E-1,-5.286636353E-1,-9.093484879E-1
5.361327452E0,-2.924799323E-1,-4.972438812E-1,-9.650764465E-1
5.366387452E0,-1.954920888E-1,-6.132421494E-1,-9.365420341E-1
5.371447452E0,-1.852808595E-1,-4.764070511E-1,-7.629847527E-1
5.376507452E0,-1.226353645E-2,-2.862634659E-1,-5.888495445E-1
5.381567452E0,1.819174290E-1,-1.977596283E-1,-4.975769520E-1
5.386627452E0,3.476009369E-1,-1.626405716E-1,-3.868293762E-1
5.391687452E0,4.710724652E-1,-1.209611893E-1,-3.396155834E-1
5.396747452E0,4.580047727E-1,-2.994823456E-2,-2.768878937E-1
5.401807452E0,3.716245890E-1,-1.013994217E-1,-1.631088257E-1
5.406867452E0,2.488172054E-1,-2.364253998E-1,-1.742768288E-2
5.411927452E0,4.415392876E-3,-3.917217255E-1,-1.347780228E-2
5.416987452E0,-9.498041868E-2,-1.823530197E-1,1.230192184E-1
5.422047452E0,4.116182029E-1,2.388591766E-1,3.267033100E-1
5.427107452E0,7.767167091E-1,2.336406708E-1,4.427294731E-1
5.432167452E0,7.612746954E-1,1.550455093E-1,5.648686886E-1
5.437227452E0,6.300152540E-1,2.722501755E-1,5.699517727E-1
5.442287452E0,5.851497650E-1,2.392225266E-1,4.355969429E-1
5.447347452E0,5.899341106E-1,1.261453629E-1,1.489968300E-1
5.452407452E0,4.967419803E-1,-3.059959412E-2,-9.827709198E-2
5.457467452E0,4.251848161E-1,2.831554413E-2,-2.613313198E-1
5.462527452E0,3.859180212E-1,7.054233551E-2,-3.647463322E-1
5.467587452E0,3.161156774E-1,4.854011536E-2,-4.450383186E-1
5.472647452E0,1.683156490E-1,-2.304840088E-2,-5.028538704E-1
5.477707452E0,5.209589005E-2,1.760959625E-2,-5.481984615E-1
5.482767452E0,-4.478657246E-2,2.459430695E-2,-6.455531120E-1
5.487827452E0,-9.885454178E-2,-8.502292633E-2,-6.711456776E-1
5.492887452E0,-1.556004882E-1,-8.705520630E-2,-6.591193676E-1
5.497947452E0,-2.456840873E-1,-1.534385681E-1,-5.979754925E-1
5.503007452E0,-2.712830305E-1,-1.957778931E-1,-5.001692772E-1
5.508067452E0,-1.804306507E-1,-1.073789597E-1,-3.090772629E-1
5.513127452E0,-7.383686304E-2,-1.530656815E-1,-1.871991158E-1
5.518187452E0,-1.369525790E-1,-3.578367233E-1,-2.906646729E-1
5.523247452E0,-3.063628674E-1,-5.350542068E-1,-3.824405670E-1
5.528307452E0,-4.701600671E-1,-5.923452377E-1,-4.079043865E-1
5.533367452E0,-6.406054497E-1,-5.354614258E-1,-3.651127815E-1
5.538427452E0,-7.774154544E-1,-4.864635468E-1,-3.280663490E-1
5.543487452E0,-8.330659866E-1,-4.214324951E-1,-2.537102699E-1
5.548547452E0,-7.961821556E-1,-6.847858429E-1,-1.893460751E-1
5.553607452E0,-7.641862631E-1,-6.203861237E-1,-1.347239017E-1
5.558667452E0,-5.186405182E-1,-7.411003113E-2,1.744651794E-2
5.563727452E0,7.504730225E-1,1.275456429E0,3.520500660E-1
5.568787452E0,3.654401898E-1,2.741899490E-1,-9.193873405E-2
5.573847452E0,-1.359455585E-1,-2.216653824E-1,-2.885196209E-1
5.578907452E0,-2.239742279E-1,-1.904258728E-1,-2.639498711E-1
5.583967452E0,-2.477918863E-1,-9.759616852E-2,-1.630191803E-1
5.589027452E0,-1.842931509E-1,-3.420448303E-2,9.122276306E-2
5.594087452E0,-1.500461102E-1,2.605533600E-2,2.499825954E-1
5.599147452E0,-1.515542269E-1,4.998970032E-2,3.259055614E-1
5.604207452E0,-1.263686419E-1,-3.567600250E-2,3.530187607E-1
5.609267452E0,-7.032716274E-2,-4.241085052E-2,1.796452999E-1
5.614327452E0,-4.536604881E-2,-4.684543610E-2,4.514241219E-2
5.619387452E0,-4.412376881E-2,1.519966125E-2,2.779054642E-2
5.624447452E0,-2.404510975E-2,1.005268097E-2,5.758500099E-2
5.629507452E0,-2.830803394E-2,-9.023666382E-2,-7.245016098E-2
5.634567452E0,-6.421685219E-2,-2.831268311E-2,-1.588802338E-1
5.639627452E0,2.118676305E-1,1.371459961E-1,-3.405284882E-2
5.644687452E0,3.465675116E-1,2.995586395E-2,1.670491695E-1
5.649747452E0,3.494361639E-1,-2.890586853E-3,4.085657597E-1
5.654807452E0,1.032253742E0,9.454879761E-1,1.034485936E0
5.659867452E0,9.462653399E-1,-8.801078796E-2,8.684124947E-1
5.664927452E0,-3.374707699E-2,-4.756259918E-1,3.648684025E-1
5.669987452E0,-8.046627045E-3,6.887531281E-2,3.218429089E-1
5.675047452E0,5.955564976E-2,-9.920692444E-2,2.504189014E-1
5.680107452E0,-7.764482498E-2,-2.492256165E-1,1.392633915E-1
5.685167452E0,-7.380223274E-2,-2.198200226E-1,4.577469826E-2
5.690227452E0,1.714518666E-1,-1.259517670E-2,3.144001961E-2
5.695287452E0,2.429540157E-1,-1.682252884E-1,1.970434189E-2
5.700347452E0,1.928755045E-1,-2.036962509E-1,1.341900826E-1
5.705407452E0,3.407244086E-1,-1.033573151E-1,3.002123833E-1
5.710467452E0,4.053279161E-1,2.247619629E-2,4.436662197E-1
5.717984379E0,3.230153918E-1,-7.152366638E-2,4.362006187E-1
5.723044379E0,2.930000424E-1,6.711006165E-3,4.887242317E-1
5.728104379E0,2.869820595E-1,-5.111694336E-2,4.576208591E-1
5.733164379E0,2.339490652E-1,-2.651977539E-1,2.913143635E-1
5.738224379E0,2.080245614E-1,-2.707109451E-1,1.431655884E-1
5.743284379E0,2.068988681E-1,-2.023468018E-1,1.652059555E-1
5.748344379E0,2.656623721E-1,-1.415815353E-1,2.061638832E-1
5.753404379E0,3.454464674E-1,-7.409286499E-2,2.518317699E-1
5.758464379E0,3.725683689E-1,-4.501342773E-2,1.574177742E-1
5.763524379E0,3.212205172E-1,-5.877685547E-2,7.855558395E-2
5.768584379E0,2.986950278E-1,-9.361934662E-2,-2.741408348E-2
5.773644379E0,2.786557674E-1,-7.097053528E-2,-1.792728901E-1
5.778704379E0,3.347089887E-1,4.044532776E-3,-4.142282009E-1
5.783764379E0,3.283417225E-1,4.072666168E-2,-6.056044102E-1
5.788824379E0,2.813994884E-1,-2.952575684E-2,-7.419781685E-1
5.793884379E0,1.776844263E-1,-6.082630157E-2,-8.544125557E-1
5.798944379E0,1.580035686E-1,8.904838562E-2,-8.409981728E-1
5.804004379E0,1.310614347E-1,1.999959946E-1,-8.429644108E-1
5.809064379E0,-4.745006561E-3,1.014165878E-1,-8.837602139E-1
5.814124379E0,-1.770511866E-1,2.549552917E-2,-8.657512665E-1
5.819184379E0,-4.064241648E-1,4.807090759E-2,-7.683074474E-1
5.824244379E0,-5.666550398E-1,6.597614288E-2,-6.806626320E-1
5.829304379E0,-6.844470501E-1,5.778789520E-2,-5.769343376E-1
5.834364379E0,-8.149460554E-1,-1.458930969E-2,-5.604455471E-1
5.839424379E0,-9.579899311E-1,-1.508150101E-1,-6.169538498E-1
5.844484379E0,-1.080476403E0,-2.768249512E-1,-7.841160297E-1
5.849544379E0,-1.040377736E0,-2.480249405E-1,-9.618740082E-1
5.854604379E0,-9.512710571E-1,-1.252765656E-1,-9.841630459E-1
5.859664379E0,-9.422218800E-1,-1.230936050E-1,-9.468235970E-1
5.864724379E0,-9.633567333E-1,-1.073141098E-1,-8.399875164E-1
5.869784379E0,-9.169989824E-1,-1.277723312E-1,-5.496063232E-1
5.874844379E0,-8.318693638E-1,-2.219619751E-1,-3.997037411E-1
5.879904379E0,-7.343925238E-1,-3.273792267E-1,-3.767840862E-1
5.884964379E0,-6.050372124E-1,-3.559341431E-1,-4.346337318E-1
5.890024379E0,-3.513772488E-1,-4.649019241E-1,-7.027287483E-1
5.895084379E0,-1.361176968E-1,-5.156745911E-1,-9.791178703E-1
5.900144379E0,-6.098425388E-2,-3.873977661E-1,-1.225126982E0
5.905204379E0,-8.721995354E-2,1.135540009E-2,-1.223454952E0
5.910264379E0,-2.425948381E-1,3.027143478E-1,-7.645413876E-1
5.915324379E0,-4.125545025E-1,2.713403702E-1,-4.090797901E-1
5.920384379E0,-4.326580763E-1,1.327409744E-1,-2.889332771E-1
5.925444379E0,-2.870709896E-1,-1.371736526E-1,-5.240809917E-1
5.930504379E0,-9.770059586E-2,6.449031830E-2,-2.942748070E-1
5.935564379E0,-1.946485043E-2,1.827249527E-1,2.242178917E-1
5.940624379E0,5.535292625E-2,1.092205048E-1,4.083096981E-1
5.945684379E0,2.319658995E-1,1.734333038E-1,3.033204079E-1
5.950744379E0,3.742349148E-1,2.412796021E-1,5.920410156E-2
5.955804379E0,3.169764280E-1,8.017730713E-2,-7.778930664E-2
5.960864379E0,2.313220501E-1,-8.670043945E-2,-1.030788422E-1
5.965924379E0,1.603344679E-1,-1.855993271E-1,-5.541276932E-2
5.970984379E0,1.579723358E-1,-2.788047791E-1,2.229118347E-2
5.976044379E0,2.061778307E-1,-3.355541229E-1,5.637574196E-2
5.981104379E0,2.774307728E-1,-4.798803329E-1,-2.833843231E-3
5.986164379E0,3.421806097E-1,-6.209726334E-1,-9.771680832E-2
5.991224379E0,2.647436857E-1,-7.328653336E-1,-2.401432991E-1
5.996284379E0,9.141826630E-2,-8.228588104E-1,-3.914508820E-1
6.001344379E0,-2.751324177E-1,-1.048106194E0,-5.280339718E-1
6.006404379E0,-4.327304363E-1,-1.120206833E0,-5.669431686E-1
6.011464379E0,-6.040176153E-1,-1.118871689E0,-4.687693119E-1
6.016524379E0,-6.556872129E-1,-1.089732170E0,-2.890045643E-1
6.021584379E0,-6.146394014E-1,-1.037702560E0,-6.151223183E-2
6.026644379E0,-4.832897186E-1,-9.105653763E-1,3.582806587E-1
6.031704379E0,1.437786460E0,8.340721130E-1,1.358349800E0
6.036764379E0,1.890225291E0,1.749229431E-1,1.177614808E0
6.041824379E0,8.189348578E-1,-8.984184265E-2,8.186364174E-1
6.046884379E0,3.480621576E-1,1.603641510E-1,6.781167984E-1
6.051944379E0,2.010554075E-1,2.781543732E-1,6.351270676E-1
6.057004379E0,1.342040300E-1,3.738546371E-1,6.009646654E-1
6.062064379E0,1.527634859E-1,3.830900192E-1,5.089948177E-1
6.067124379E0,2.168409824E-1,3.324527740E-1,3.713493347E-1
6.072184379E0,9.002137184E-2,1.957855225E-1,3.029763699E-1
6.077244379E0,-3.450062275E-1,1.048192978E-1,3.782510757E-1
6.082304379E0,-2.936244011E-2,8.152513504E-1,8.838192225E-1
6.087364379E0,4.183717370E-1,6.441459656E-1,8.981913328E-1
6.092424379E0,4.228299856E-1,2.843503952E-1,5.061070919E-1
6.097484379E0,2.906334996E-1,-2.703285217E-2,1.101408005E-1
6.102544379E0,2.412242889E-1,-3.663158417E-2,-1.631050110E-1
6.107604379E0,2.604328990E-1,1.092834473E-1,-2.348134518E-1
6.112664379E0,3.463734984E-1,1.547584534E-1,-2.625608444E-1
6.117724379E0,5.211564898E-1,2.221155167E-1,-2.317054272E-1
6.122784379E0,7.368032336E-1,2.443046570E-1,-1.759054661E-1
6.127844379E0,7.946881056E-1,1.854600906E-1,-1.527256966E-1
6.132904379E0,6.614645720E-1,1.556253433E-1,-2.151472569E-1
6.137964379E0,6.054348350E-1,2.145395279E-1,-3.417041302E-1
6.143024379E0,5.737528205E-1,2.687721252E-1,-4.342103004E-1
6.148084379E0,6.595966220E-1,5.073833466E-1,-4.565818310E-1
6.153144379E0,5.376482606E-1,6.287307739E-1,-2.700703144E-1
6.158204379E0,1.487016082E-1,5.731697083E-1,2.691173553E-2
6.163264379E0,-1.075292826E-1,4.868030548E-1,2.235476971E-1
6.168324379E0,4.072773457E-2,5.585088730E-1,3.388290405E-1
6.173384379E0,2.868970633E-1,6.299982071E-1,3.361818790E-1
6.178444379E0,4.423795938E-1,6.821775436E-1,3.353216648E-1
6.183504379E0,4.097378850E-1,4.065294266E-1,2.334969044E-1
6.188564379E0,2.135484815E-1,2.701368332E-1,4.554390907E-2
6.193624379E0,1.843370795E-1,4.619731903E-1,-1.107144356E-1
6.198684379E0,1.711376905E-1,4.338912964E-1,-2.945408821E-1
6.203744379E0,-8.471953869E-2,2.112483978E-2,-5.343112946E-1
6.208804379E0,-4.617334008E-1,-6.467638016E-1,-8.587672710E-1
6.213864379E0,-7.690713406E-1,-7.012233734E-1,-9.765632153E-1
6.218924379E0,-8.786675334E-1,-4.592666626E-1,-8.030662537E-1
6.223984379E0,-8.459759355E-1,-2.970924377E-1,-5.833952427E-1
6.229044379E0,-7.377727032E-1,-1.955089569E-1,-4.256219864E-1
6.234104379E0,-5.851445198E-1,-8.504199982E-2,-3.392510414E-1
6.239164379E0,-5.697560310E-1,-1.020345688E-1,-2.212612629E-1
6.244224379E0,-6.529738903E-1,-1.482419968E-1,-5.028319359E-2
6.249284379E0,-6.766556501E-1,-1.087064743E-1,9.729337692E-2
6.254344379E0,-6.670483351E-1,-1.007099152E-1,1.905407906E-1
6.259404379E0,-5.879855752E-1,-5.701255798E-2,2.469441891E-1
6.264464379E0,-3.990186453E-1,-8.515071869E-2,2.983665466E-1
6.269524379E0,-5.351929069E-1,-1.991224289E-1,3.456723690E-1
6.274584379E0,-4.530367851E-1,-1.546287537E-1,4.732664824E-1
6.279644379E0,-3.798090816E-1,-1.144523621E-1,6.263450384E-1
6.284704379E0,-1.953725219E-1,1.975440979E-2,7.722367048E-1
6.289764379E0,-1.052035689E-1,2.785682678E-2,7.461198568E-1
6.294824379E0,-5.164819956E-2,9.674263000E-2,6.874173880E-1
6.299884379E0,-4.881554842E-2,1.785058975E-1,6.679733992E-1
6.304944379E0,-4.123139381E-2,2.205133438E-1,5.297493935E-1
6.310004379E0,2.821326256E-2,1.342687607E-1,2.537546158E-1
6.315064379E0,8.293598890E-2,3.947639465E-2,-1.189899445E-2
6.320124379E0,1.349766254E-1,-1.980514526E-1,-3.256015778E-1
6.325184379E0,1.168218255E-1,-4.947357178E-1,-6.214804649E-1
6.330244379E0,1.357173324E-1,-6.211175919E-1,-8.287906647E-1
6.335304379E0,1.842110157E-1,-6.422243118E-1,-9.531841278E-1
6.340364379E0,1.395667791E-1,-5.464859009E-1,-9.955110550E-1
6.345424379E0,1.375339627E-1,-4.083070755E-1,-9.511232376E-1
6.350484379E0,-1.618832350E-2,-1.751337051E-1,-8.176288605E-1
6.355544379E0,-2.094339132E-1,6.682300568E-2,-5.900011063E-1
6.360604379E0,-3.728162050E-1,1.933345795E-1,-3.249864578E-1
6.365664379E0,-4.773563147E-1,2.215461731E-1,-1.868631840E-1
6.370724379E0,-5.086036921E-1,1.875848770E-1,-1.320264339E-1
6.375784379E0,-4.114995003E-1,2.231721878E-1,-4.058623314E-2
6.380844379E0,-2.502458096E-1,3.905410767E-1,1.426458359E-1
6.385904379E0,-1.247075200E-1,5.604000092E-1,3.074791431E-1
6.390964379E0,3.034794331E-2,6.610012054E-1,4.011611938E-1
6.396024379E0,2.893869281E-1,7.642259598E-1,5.313732624E-1
6.401084379E0,3.679268360E-1,8.270072937E-1,7.505495548E-1
6.406144379E0,4.933195114E-1,8.589639664E-1,8.887450695E-1
6.411204379E0,6.682227850E-1,9.678878784E-1,9.223208427E-1
6.416264379E0,8.424860239E-1,1.172904015E0,1.035825253E0
6.421324379E0,1.037455082E0,1.330296516E0,1.028048515E0
6.426384379E0,1.155095220E0,1.122081757E0,7.202135324E-1
6.431444379E0,1.080735922E0,7.283391953E-1,1.802425385E-1
6.436504379E0,9.482975602E-1,4.004802704E-1,-2.806353569E-1
6.441564379E0,1.041839838E0,1.287345886E-1,-6.890363693E-1
6.449071098E0,1.200708151E0,-8.973503113E-2,-8.759970665E-1
6.454147348E0,1.169720650E0,-2.571163177E-1,-1.020892382E0
6.459224066E0,9.254193306E-1,-4.697494507E-1,-9.983725548E-1
6.464300785E0,5.468636155E-1,-5.435895920E-1,-8.308708668E-1
6.469377504E0,3.903288841E-1,-7.326908112E-1,-8.183507919E-1
6.474452712E0,3.331379890E-1,-9.104337692E-1,-9.327442646E-1
6.479529379E0,3.012053370E-1,-8.760328293E-1,-1.009385347E0
6.484606045E0,2.200869322E-1,-6.850156784E-1,-9.460096359E-1
6.489682712E0,-5.635917187E-2,-5.792570114E-1,-7.642483711E-1
6.494742712E0,-4.061353207E-1,-4.748926163E-1,-5.979764462E-1
6.499802712E0,-7.410562038E-1,-4.292449951E-1,-3.915939331E-1
6.504862712E0,-9.633870125E-1,-2.722063065E-1,-1.635763645E-1
6.509922712E0,-1.109091401E0,-1.474142075E-1,7.186341286E-2
6.514982712E0,-1.203999162E0,-1.073226929E-1,3.388264179E-1
6.520042712E0,-1.245420337E0,3.018093109E-2,6.759626865E-1
6.525102712E0,-1.000588179E0,1.071357727E-1,8.461760283E-1
6.530162712E0,-6.581265926E-1,5.926704407E-2,7.639927864E-1
6.535222712E0,-4.759584665E-1,-6.764698029E-2,4.993586540E-1
6.540282712E0,-4.821534157E-1,-1.967048645E-1,2.995080948E-1
6.545342712E0,-5.400665998E-1,-2.846813202E-1,9.787511826E-2
6.550402712E0,-5.640066862E-1,-3.195581436E-1,-4.034614563E-2
6.555462712E0,-5.042511225E-1,-3.299684525E-1,-1.001803875E-1
6.560522712E0,-3.953889608E-1,-3.758754730E-1,-2.060492039E-1
6.565582712E0,-2.734986544E-1,-4.692363739E-1,-3.124899864E-1
6.570642712E0,-1.606820822E-1,-5.240268707E-1,-3.456192017E-1
6.575702712E0,-8.362197876E-2,-5.955543518E-1,-3.276503086E-1
6.580762712E0,-3.512799740E-2,-6.529054642E-1,-2.593340874E-1
6.585822712E0,-6.255340576E-2,-6.053352356E-1,-1.677858829E-1
6.590882712E0,-7.406759262E-2,-5.773839951E-1,-1.012780666E-1
6.595942712E0,-7.895088196E-2,-6.288270950E-1,-9.577965736E-2
6.601002712E0,-5.747961998E-2,-5.824632645E-1,-9.867119789E-2
6.606062712E0,-5.740630627E-2,-5.627994537E-1,-4.771709442E-2
6.611122712E0,9.601140022E-2,-3.831987381E-1,1.334977150E-1
6.616182712E0,2.905954123E-1,-2.160978317E-1,2.772064209E-1
6.621242712E0,5.578675270E-1,-2.781867981E-2,4.531722069E-1
6.626302712E0,8.885301352E-1,1.865568161E-1,5.660290718E-1
6.631362712E0,1.098073125E0,2.596483231E-1,6.163756847E-1
6.636422712E0,1.177466035E0,3.210182190E-1,6.621840000E-1
6.641482712E0,1.134000540E0,3.445005417E-1,7.637776136E-1
6.646542712E0,1.024763346E0,4.257860184E-1,9.426515102E-1
6.651602712E0,1.043312073E0,5.431518555E-1,1.064478874E0
6.656662712E0,1.088767767E0,5.840692520E-1,1.045587182E0
6.661722712E0,1.096345901E0,4.815931320E-1,9.243246317E-1
6.666782712E0,1.056654572E0,4.153347015E-1,8.108069897E-1
6.671842712E0,1.029616594E0,4.378795624E-1,7.600091696E-1
6.676902712E0,9.771601558E-1,5.157022476E-1,7.217912674E-1
6.681962712E0,9.234187007E-1,6.297359467E-1,6.893693209E-1
6.687022712E0,8.349584341E-1,6.842308044E-1,6.650835276E-1
6.692082712E0,6.997302175E-1,6.386651993E-1,5.176541805E-1
6.697142712E0,5.397104621E-1,4.214706421E-1,1.947052479E-1
6.702202712E0,3.094477057E-1,1.212882996E-1,-2.488567829E-1
6.707262712E0,1.021455526E-1,-4.657173157E-2,-6.170365810E-1
6.712322712E0,-6.342208385E-2,-1.661624908E-1,-9.581477642E-1
6.717382712E0,-3.197107315E-1,-3.118276596E-1,-1.291379452E0
6.722442712E0,-7.103585005E-1,-4.310503006E-1,-1.542771816E0
6.727502712E0,-9.918527603E-1,-5.167474747E-1,-1.604621649E0
6.732562712E0,-1.201123714E0,-5.477037430E-1,-1.527900219E0
6.737622712E0,-1.326238751E0,-4.666957855E-1,-1.322785616E0
6.742682712E0,-1.338134170E0,-3.527755737E-1,-1.178518534E0
6.747742712E0,-1.244045615E0,-2.323904037E-1,-1.040327549E0
6.752802712E0,-1.165685177E0,-1.150102615E-1,-9.104456902E-1
6.757862712E0,-1.069150448E0,-6.269645691E-2,-7.813854218E-1
6.762922712E0,-9.879702330E-1,2.510643005E-2,-6.005547047E-1
6.767982712E0,-9.724506140E-1,6.714439392E-2,-4.297149181E-1
6.773042712E0,-9.026602507E-1,1.305456161E-1,-2.639114857E-1
6.778102712E0,-8.073956966E-1,1.195936203E-1,-1.437644958E-1
6.783162712E0,-7.583434582E-1,5.599403381E-2,-5.226087570E-2
6.788222712E0,-7.481486797E-1,2.366828918E-2,-8.160352707E-3
6.793282712E0,-8.696407080E-1,-6.831645966E-2,7.697463036E-2
6.798342712E0,-9.938217402E-1,-1.936950684E-1,2.315485477E-1
6.803402712E0,-1.032420158E0,-2.065925598E-1,4.169478416E-1
6.808462712E0,-1.071747541E0,-1.480875015E-1,7.016303539E-1
6.813522712E0,-8.844763041E-1,-4.947376251E-2,8.458487988E-1
6.818582712E0,-6.308966875E-1,-1.739149094E-1,7.971982956E-1
6.823642712E0,-3.007961512E-1,-2.314710617E-1,5.561382771E-1
6.828702712E0,1.776330471E-1,-3.751449585E-1,6.851077080E-2
6.833762712E0,5.341060758E-1,-5.137290955E-1,-2.126688957E-1
6.838822712E0,7.782585621E-1,-4.747991562E-1,-3.396589756E-1
6.843882712E0,1.010315776E0,-4.236440659E-1,-4.535501003E-1
6.848942712E0,1.125115395E0,-3.745040894E-1,-5.204567909E-1
6.854002712E0,1.110771894E0,-2.413101196E-1,-4.544839859E-1
6.859062712E0,9.509416819E-1,-2.107858658E-1,-3.588023186E-1
6.864122712E0,8.488157988E-1,-1.416854858E-1,-3.673961163E-1
6.869182712E0,8.811184168E-1,1.452693939E-1,-2.150580883E-1
6.874242712E0,8.691289425E-1,1.784963608E-1,-9.136676788E-2
6.879302712E0,7.194897532E-1,6.117534637E-2,-7.044863701E-2
6.884362712E0,5.326321721E-1,-2.718162537E-2,-1.476788521E-1
6.889422712E0,4.399360418E-1,-1.633548737E-1,-2.253632545E-1
6.894482712E0,3.859174252E-1,-2.684707642E-1,-3.923513889E-1
6.899542712E0,3.891925216E-1,-2.972021103E-1,-5.553236008E-1
6.904602712E0,3.703917861E-1,-3.071146011E-1,-6.975643635E-1
6.909662712E0,3.175938129E-1,-2.647361755E-1,-7.832031250E-1
6.914722712E0,2.640086412E-1,-2.657938004E-1,-8.000814915E-1
6.919782712E0,2.883683443E-1,-2.813682556E-1,-8.768460751E-1
6.924842712E0,3.614325523E-1,-2.540693283E-1,-9.583692551E-1
6.929902712E0,4.778197408E-1,-2.078390121E-1,-1.032325983E0
6.934962712E0,5.488929152E-1,-1.690397263E-1,-1.029414415E0
6.940022712E0,5.459035635E-1,-2.046537399E-1,-1.028666019E0
6.945082712E0,3.517079949E-1,-3.121967316E-1,-9.080929756E-1
6.950142712E0,4.562556744E-2,-4.365482330E-1,-6.463944912E-1
6.955202712E0,-2.425163984E-1,-5.657444000E-1,-3.660800457E-1
6.960262712E0,-3.922904730E-1,-4.701223373E-1,-9.633350372E-2
6.965322712E0,-4.059144258E-1,-2.767505646E-1,1.220738888E-1
6.970382712E0,-3.663735390E-1,-1.602125168E-1,2.607941628E-1
6.975442712E0,-4.067401886E-1,-1.538314819E-1,3.939800262E-1
6.980502712E0,-4.662544727E-1,-1.065940857E-1,4.764046669E-1
6.985562712E0,-5.298689604E-1,-1.842689514E-2,5.514156818E-1
6.990622712E0,-5.716544986E-1,7.709503174E-2,5.186297894E-1
6.995682712E0,-6.782268882E-1,2.445669174E-1,5.195615292E-1
7.000742712E0,-6.369478703E-1,1.561937332E-1,4.469089508E-1
7.005802712E0,-5.178982019E-1,7.783317566E-2,3.247926235E-1
7.010862712E0,-3.458061218E-1,2.240180969E-3,2.873411179E-1
7.015922712E0,-2.046955228E-1,3.537178040E-3,2.315044403E-1
7.020982712E0,1.312577724E-2,4.811000824E-2,1.811635494E-1
7.026042712E0,1.352363825E-2,4.738330841E-2,1.649241447E-1
7.031102712E0,-1.677457094E-1,1.593341827E-1,2.021059990E-1
7.036162712E0,-2.562086582E-1,3.023452759E-1,2.207345963E-1
7.041222712E0,-2.353082895E-1,4.501628876E-1,2.475383282E-1
7.046282712E0,-3.847858310E-1,4.760723114E-1,2.875132561E-1
7.051342712E0,-3.558470607E-1,5.165939331E-1,1.518867016E-1
7.056402712E0,-3.876018524E-1,2.750463486E-1,8.239555359E-2
7.061462712E0,-3.336700797E-1,-2.105331421E-2,1.668901443E-1
7.066522712E0,-2.965628505E-1,8.603096008E-3,2.488830090E-1
7.071582712E0,-3.431050181E-1,4.039001465E-2,2.509427071E-1
7.076642712E0,-4.202411175E-1,5.505084991E-2,3.520820141E-1
7.081702712E0,-4.129632711E-1,2.678546906E-1,4.250750542E-1
7.086762712E0,-3.856778145E-1,2.121343613E-1,3.291049004E-1
7.091822712E0,-3.435364366E-1,2.399692535E-1,7.186651230E-2
7.096882712E0,-2.291015983E-1,3.585100174E-1,-2.002389431E-1
7.101942712E0,-9.766286612E-2,4.242229462E-1,-3.215782642E-1
7.107002712E0,-5.679303408E-2,2.841930389E-1,-2.607872486E-1
7.112062712E0,2.991557121E-3,5.032796860E-1,2.989983559E-2
7.117122712E0,-5.232596397E-2,5.116739273E-1,1.293282509E-1
7.122182712E0,3.358944654E-1,5.968284607E-1,4.330992699E-2
7.127242712E0,4.862181842E-1,4.501495361E-1,2.820181847E-2
7.132302712E0,6.026859283E-1,4.690971375E-1,7.905364037E-2
7.137362712E0,9.740746617E-1,2.134532928E-1,-8.156013489E-2
7.142422712E0,1.114391565E0,-8.422279358E-2,-4.050273895E-1
7.147482712E0,1.269380331E0,-6.523036957E-2,-5.638663769E-1
7.152542712E0,1.523452282E0,3.560161591E-2,-4.962072372E-1
7.157602712E0,1.736306906E0,-3.393011093E-1,-6.405630112E-1
7.162662712E0,2.038635731E0,-5.338745117E-1,-4.391970634E-1
7.167722712E0,1.944881678E0,-1.043472290E0,4.140331745E-1
7.172782712E0,1.769228458E0,-1.135332108E0,9.118568897E-1
7.177842712E0,1.396955848E0,-1.532687664E0,7.167186737E-1
7.182902712E0,1.034830451E0,-1.555833817E0,4.467484951E-1
7.187962712E0,1.084743619E0,-1.279844284E0,-3.700063229E-1
7.193022712E0,1.238306046E0,-3.042745590E-1,-6.076304913E-1
7.198082712E0,9.974707961E-1,1.111217499E0,-3.453586102E-1
7.203142712E0,9.541519284E-1,9.205179214E-1,-5.886664391E-1
7.208202712E0,1.266212225E0,6.807136536E-2,-5.505299568E-1
7.215709118E0,1.251047134E0,-2.404146194E-1,-1.737818718E-1
7.220786462E0,8.647594452E-1,-1.474590302E-1,-1.106903553E-1
7.225854691E0,5.037017465E-1,8.784198761E-2,3.196668625E-2
7.230931566E0,1.367104053E-2,4.442873001E-1,4.044532776E-1
7.236008441E0,-2.476058602E-1,8.288764954E-1,8.960323334E-1
7.241085368E0,-3.526312113E-1,1.311420441E0,1.544234037E0
7.246159483E0,-4.855037928E-1,1.688718796E0,2.237343311E0
7.251236254E0,-6.310752034E-1,1.533025742E0,2.411797285E0
7.256312973E0,-6.308668852E-1,1.082141876E0,1.937487602E0
7.261389691E0,-4.970971942E-1,7.264356613E-1,1.396766186E0
7.266470212E0,-5.067762136E-1,5.279760361E-1,9.975631237E-1
7.271547191E0,-4.532861710E-1,3.427820206E-1,6.979243755E-1
7.276624118E0,-6.162389517E-1,6.542873383E-2,3.894000053E-1
7.281701045E0,-1.107740283E0,-1.916933060E-1,-5.786824226E-2
7.286772764E0,-1.457222462E0,-3.261489868E-1,-4.007184505E-1
7.291849431E0,-1.761611700E0,-4.676923752E-1,-7.240538597E-1
7.296926098E0,-1.648674846E0,-4.420003891E-1,-1.009544134E0
7.302002764E0,-1.210055351E0,-4.194974899E-1,-1.160236597E0
7.307099275E0,-7.951878309E-1,-3.499498367E-1,-1.197958469E0
7.312176983E0,-3.195612431E-1,-2.358179092E-1,-1.247559309E0
7.317254691E0,9.535127878E-2,-2.158803940E-1,-1.263653517E0
7.322332295E0,4.286134243E-1,-2.111158371E-1,-1.146162271E0
7.327427191E0,7.595335841E-1,-2.621555328E-1,-1.115388155E0
7.332505785E0,9.590159655E-1,-3.305263519E-1,-1.103858948E0
7.337584275E0,9.844330549E-1,-3.657732010E-1,-9.985640049E-1
7.342662816E0,8.406598568E-1,-3.486938477E-1,-8.566610813E-1
7.347700004E0,4.604467154E-1,-3.054637909E-1,-6.366224289E-1
7.352776462E0,1.109993458E-1,-1.714553833E-1,-4.790663719E-1
7.357852920E0,-1.776305437E-1,-1.141262054E-1,-4.452540874E-1
7.362929379E0,-4.062000513E-1,-6.860065460E-2,-4.623191357E-1
7.368026566E0,-4.605752230E-1,2.977752686E-2,-4.651784897E-1
7.373104066E0,-5.419380665E-1,-1.084918976E-1,-7.000739574E-1
7.378181566E0,-5.950522423E-1,-1.696138382E-1,-8.100283146E-1
7.383259066E0,-6.895946264E-1,-2.254619598E-1,-1.010468483E0
7.388322608E0,-7.102530003E-1,-3.166818619E-1,-1.215247631E0
7.393399431E0,-7.812412977E-1,-3.665628433E-1,-1.268654346E0
7.398476202E0,-9.836378694E-1,-3.560914993E-1,-1.240673304E0
7.403553025E0,-1.252228856E0,-3.475027084E-1,-1.191313744E0
7.408622660E0,-1.349744678E0,-3.193140030E-1,-1.082685232E0
7.413699066E0,-1.338498354E0,-3.051128387E-1,-9.941604137E-1
7.418775525E0,-1.103367805E0,-3.958950043E-1,-8.951542377E-1
7.423851931E0,-8.880081773E-1,-4.958610535E-1,-8.195366859E-1
7.428933233E0,-7.398380637E-1,-6.001033783E-1,-7.335624695E-1
7.434009900E0,-4.519755244E-1,-7.446088791E-1,-5.828809738E-1
7.439086566E0,-2.849420905E-1,-8.671302795E-1,-4.251263142E-1
7.444163285E0,-1.069347858E-1,-8.839368820E-1,-3.463509083E-1
7.449234795E0,1.281106472E-2,-9.029321671E-1,-2.343645096E-1
7.454311254E0,-6.795048714E-3,-8.261299133E-1,2.048611641E-2
7.459387660E0,-3.844338655E-2,-7.326946259E-1,3.746283054E-1
7.464464118E0,7.876276970E-2,-8.260517120E-1,7.798864841E-1
7.469549848E0,2.571846843E-1,-1.072484016E0,1.293379426E0
7.474626723E0,3.572669625E-1,-1.500301838E0,1.750238657E0
7.479703598E0,4.738430679E-1,-1.836279869E0,2.009881973E0
7.484780525E0,5.311092734E-1,-2.183366776E0,1.974416733E0
7.489861670E0,7.128821015E-1,-2.587192059E0,1.586243033E0
7.494938754E0,9.218437672E-1,-2.974106789E0,1.384913206E0
7.500015889E0,1.000759602E0,-3.183975697E0,1.401167870E0
7.505092973E0,1.002601504E0,-3.639921665E0,1.258988976E0
7.510171670E0,9.275224209E-1,-4.120913029E0,1.221834660E0
7.515248806E0,7.938566804E-1,-4.724409580E0,9.878205061E-1
7.520326045E0,6.991900802E-1,-5.404711723E0,6.269869804E-1
7.525403233E0,7.245895863E-1,-5.851059437E0,1.001396179E-1
7.530469066E0,6.453230381E-1,-6.241196156E0,1.382415295E-1
7.535545681E0,5.129455924E-1,-6.551605225E0,-9.577941895E-2
7.540622295E0,-2.709197998E-2,-3.075294018E0,-5.810332298E-2
7.545698910E0,-9.162395000E-1,4.339298248E0,9.403848648E-2
7.550785264E0,-1.329712510E0,1.038154888E1,1.400559306E0
7.555862348E0,-1.216597557E0,1.239566135E1,2.328938484E0
7.560939431E0,-8.532601595E-1,1.208158398E1,1.287810326E0
7.566016566E0,-6.406754255E-1,1.154462624E1,-5.661935806E-1
7.571095420E0,-4.051764011E-1,1.091341782E1,-9.544932842E-1
7.576172608E0,-1.459316015E-1,9.816268921E0,-8.991756439E-1
7.581249743E0,4.738450050E-2,7.850744247E0,-1.107129335E0
7.586326931E0,-1.118236780E-1,4.758966446E0,-4.448440075E-1
7.591400993E0,-3.616758585E-1,1.319396019E0,1.723506451E-1
7.596478077E0,-1.235873699E-1,-1.220189095E0,4.792886972E-1
7.601555108E0,-1.299637556E-1,-1.751743317E0,4.805331230E-1
7.606632139E0,-2.405859232E-1,-1.229909897E0,3.651449680E-1
7.611725577E0,-2.836647034E-1,-9.094667435E-1,2.111321688E-1
7.616803389E0,-1.598542929E-1,-1.163383484E0,1.532900333E-1
7.621881306E0,1.471264362E-1,-1.636846066E0,7.211637497E-2
7.626959118E0,6.792145967E-1,-2.154798031E0,-4.394438267E-1
7.632020629E0,1.115509868E0,-2.243375301E0,-8.914411068E-1
7.637097660E0,1.373444557E0,-2.151941299E0,-1.337228060E0
7.642174691E0,1.415608287E0,-1.761190414E0,-1.586202383E0
7.647251723E0,1.567957759E0,-1.784420967E0,-2.186459303E0
7.652323129E0,1.204407692E0,-2.408180714E0,-3.199929953E0
7.657399848E0,-3.472590446E-2,-2.909681320E0,-2.402467489E0
7.662476618E0,-5.877765417E-1,-2.700158119E0,-8.376464844E-1
7.667553389E0,-3.452862501E-1,-1.978417397E0,-1.758857965E-1
7.672639327E0,-2.880592346E-1,-1.285775185E0,-1.381956339E-1
7.677716514E0,-1.803377867E-1,-5.748968124E-1,-1.744029522E-1
7.682793754E0,-3.091379404E-1,-9.014320374E-2,-2.692584991E-1
7.687870941E0,-6.032067537E-1,-3.242778778E-2,-7.080885172E-1
7.692957191E0,-4.306238890E-1,-1.163482666E-2,-1.081905842E0
7.698034900E0,-2.417789698E-1,1.469898224E-1,-1.479257584E0
7.703112504E0,-1.011298895E-1,3.213510513E-1,-1.708618402E0
7.708190212E0,-3.999853134E-2,5.833730698E-1,-1.755060196E0
7.713245420E0,4.469919205E-2,5.097064972E-1,-2.017472506E0
7.718321983E0,2.346606255E-1,3.518943787E-1,-2.398546696E0
7.723398545E0,3.967804909E-1,4.043788910E-1,-2.652535439E0
7.728475056E0,5.583368540E-1,4.157791138E-1,-2.890395403E0
7.733555941E0,6.355153918E-1,3.168497086E-1,-3.035675049E0
7.738632712E0,6.546022892E-1,6.953907013E-2,-3.016816616E0
7.743709483E0,6.321988702E-1,-2.181177139E-1,-3.010512352E0
7.748786254E0,5.896030068E-1,-4.024677277E-1,-3.117558002E0
7.753865004E0,5.344351530E-1,-5.075006485E-1,-3.018385887E0
7.758941827E0,3.835846186E-1,-5.809488297E-1,-2.299983025E0
7.764018754E0,3.978580236E-1,-2.302370071E-1,-2.003830433E0
7.769095629E0,4.238820076E-1,2.620840073E-1,-2.389755249E0
7.774186202E0,4.661082625E-1,7.237930298E-1,-2.691176176E0
7.779263754E0,3.653120995E-1,1.258049011E0,-2.063381910E0
7.784341306E0,4.100315571E-1,1.503669739E0,-1.147861362E0
7.789418858E0,7.948369980E-1,1.451752663E0,5.994540453E-2
7.794484795E0,7.071285248E-1,8.326091766E-1,1.255280137E0
7.799561775E0,4.406847954E-1,2.064352036E-1,8.308348656E-1
7.804638806E0,3.200483322E-1,-2.644929886E-1,7.923430204E-1
7.809715733E0,5.798149109E-2,-7.096433640E-1,1.054364681E0
7.814789900E0,-3.793228865E-1,-1.016743660E0,1.349218249E0
7.819866723E0,-7.175574303E-1,-1.308254242E0,1.591302037E0
7.824943598E0,-9.813534021E-1,-1.538913250E0,1.875811100E0
7.830020368E0,-1.283899784E0,-1.618072033E0,2.109234095E0
7.835108806E0,-1.398828030E0,-1.546156883E0,2.054595947E0
7.840186254E0,-1.393578649E0,-1.548350811E0,1.800566196E0
7.845263650E0,-1.416321158E0,-1.495293617E0,1.454095602E0
7.850341045E0,-1.426146984E0,-1.554450989E0,1.091133356E0
7.855402556E0,-1.487473488E0,-1.756758690E0,7.093894482E-1
7.860479170E0,-1.644115567E0,-1.824512959E0,3.008377552E-2
7.865555837E0,-1.513572693E0,-1.839200020E0,-2.411030531E-1
7.870632452E0,-1.598271132E0,-1.695610523E0,-3.596838117E-1
7.875707764E0,-1.297405839E0,-1.748145580E0,-4.945764542E-1
7.880784327E0,-8.378548622E-1,-1.836236954E0,-3.576647043E-1
7.885860889E0,-6.852157116E-1,-1.383151054E0,-6.425282359E-1
7.890937400E0,-5.640549660E-1,-1.054482460E0,-6.394846439E-1
7.896022295E0,-5.893296003E-1,-9.863519669E-1,-4.093044996E-1
7.901099327E0,-4.762378931E-1,-9.919395447E-1,-2.553790808E-1
7.906176254E0,-2.678484917E-1,-1.009018898E0,2.344604731E-1
7.911253233E0,-4.235054255E-1,-7.076072693E-1,1.400557280E0
7.916330212E0,-5.074253082E-1,-4.357233047E-1,2.134897232E0
7.921407191E0,-4.999934435E-1,-5.599479675E-1,2.387663364E0
7.926484223E0,-3.000429869E-1,-4.888658524E-1,2.436892509E0
7.931561150E0,-1.936256886E-2,-3.634033203E-1,2.378923893E0
7.936651254E0,1.076350212E-1,-4.055967331E-1,2.364601374E0
7.941728910E0,5.009055138E-2,-4.117765427E-1,2.417248011E0
7.946806566E0,1.396579742E-1,-3.033304214E-1,2.326627970E0
7.951884170E0,3.574410677E-1,-9.234619141E-2,1.844095469E0
7.956948910E0,5.963380337E-1,-1.306819916E-2,1.093481541E0
7.962025941E0,6.724381447E-1,1.883697510E-2,5.617525578E-1
7.967102920E0,5.841326714E-1,8.013248444E-2,3.153192997E-1
7.972179900E0,4.565042257E-1,1.971197128E-1,5.001878738E-2
7.977244743E0,9.324508905E-2,4.607572556E-1,-5.037069321E-2
7.982321098E0,-4.610462785E-1,6.987228394E-1,8.021712303E-2
7.987397504E0,-8.484842181E-1,8.987894058E-1,2.435953617E-1
7.992473858E0,-9.577519894E-1,9.748020172E-1,3.536865711E-1
7.997569952E0,-7.342450619E-1,9.413614273E-1,3.075456619E-1
8.002647295E0,-5.841906667E-1,9.466924667E-1,3.265106678E-1
8.007724691E0,-5.735400319E-1,1.165412903E0,2.527785301E-1
8.012802087E0,-6.698251963E-1,1.458647728E0,1.795048714E-1
8.017863702E0,-7.307527065E-1,1.505952835E0,7.021808624E-2
8.022940316E0,-6.509858370E-1,1.303071022E0,-5.173873901E-2
8.028016827E0,-2.752434313E-1,7.594785690E-1,-7.249016762E-1
8.033093441E0,1.147491455E0,2.998304367E-1,-1.012634039E0
8.038176879E0,3.856740296E-1,7.085781097E-1,-1.101137161E0
8.043253858E0,-5.214976072E-1,5.317840576E-1,-1.049202681E0
8.048330733E0,-2.662885785E-1,-3.127861023E-2,-6.442277431E-1
8.053407712E0,-2.069504857E-1,-4.204187393E-1,-1.255185604E-1
8.058478181E0,-3.729714453E-1,-5.857419968E-1,5.094954967E-1
8.063554795E0,-4.882103503E-1,-4.507551193E-1,1.300886393E0
8.068631410E0,-4.282961190E-1,2.203273773E-2,1.546108246E0
8.073708025E0,-4.680205882E-1,4.396390915E-1,1.662605762E0
8.078788545E0,-3.985178173E-1,5.073509216E-1,1.388435841E0
8.083865316E0,-4.585152566E-1,6.702432632E-1,1.255909920E0
8.088942139E0,7.004459202E-2,4.523868561E-1,1.527293682E0
8.094018962E0,-1.123212278E-2,2.989358902E-1,2.018414021E0
8.099100316E0,2.285846174E-1,5.968112946E-1,2.270692825E0
8.104177400E0,6.771371365E-1,7.925662994E-1,2.258342266E0
8.109254379E0,5.306666493E-1,8.168630600E-1,2.340533733E0
8.114331410E0,3.441415429E-1,7.511205673E-1,2.598647118E0
8.119408754E0,6.365422606E-1,6.384830475E-1,3.056324005E0
8.124485785E0,8.239043951E-1,4.046754837E-1,3.718253613E0
8.129562868E0,7.233185768E-1,1.929788589E-1,4.049025059E0
8.134639848E0,9.100897312E-1,1.872119904E-1,3.877542973E0
8.139718233E0,1.329214811E0,2.554893494E-2,3.082844257E0
8.144795368E0,7.283703685E-1,-6.185817719E-2,2.686557293E0
8.149872452E0,5.899693370E-1,9.048366547E-2,2.306785107E0
8.154949535E0,8.235176802E-1,1.407270432E-1,1.188312054E0
8.160018389E0,7.899386883E-1,4.151172638E-1,5.504431725E-1
8.165095108E0,6.941429973E-1,6.741237640E-1,6.055626869E-1
8.170171827E0,5.368999839E-1,8.363504410E-1,8.315296173E-1
8.175248493E0,2.444853783E-1,8.947687149E-1,1.168542385E0
8.180335004E0,8.307731152E-2,7.777042389E-1,1.176592827E0
8.185412191E0,3.490526080E-1,3.012371063E-1,1.114364624E0
8.190489327E0,-4.455482960E-2,1.023054123E-1,1.058423042E0
8.195566514E0,-1.840651035E-3,-3.448390961E-2,5.992908478E-1
8.200639848E0,1.246488690E-1,-3.049821854E-1,2.172789574E-1
8.205716879E0,-6.312662363E-2,-3.284530640E-1,-4.763650894E-2
8.210793858E0,-1.195304990E-1,-8.818435669E-2,-1.578822136E-1
8.215870889E0,-1.809425950E-1,1.117143631E-1,-2.215023041E-1
8.220946879E0,-2.443683743E-1,2.664737701E-1,-3.223838806E-1
8.226023858E0,-3.259375095E-1,3.236293793E-1,-3.890657425E-1
8.231100785E0,-2.169356942E-1,2.977085114E-1,-3.979039192E-1
8.236177712E0,-1.544762254E-1,3.347053528E-1,-3.249683380E-1
8.241253545E0,-1.254931092E-1,4.775266647E-1,-1.842942238E-1
8.246330420E0,-9.297704697E-2,6.351432800E-1,-1.312184334E-1
8.251407295E0,-4.500997066E-2,6.903467178E-1,-2.877101898E-1
8.256484223E0,-1.748251319E-1,7.605686188E-1,-2.374472618E-1
8.261559066E0,-2.189782262E-1,8.339223862E-1,1.915216446E-2
8.266635837E0,4.706799984E-2,4.890871048E-1,2.358803749E-1
8.271712608E0,-6.070380211E-1,4.800691605E-1,7.528562546E-1
8.276789431E0,-7.636437416E-1,1.098213196E0,1.039279461E0
8.281863962E0,-4.132720828E-1,9.597787857E-1,9.830279350E-1
8.286940629E0,-5.942204595E-1,7.168445587E-1,1.306298733E0
8.292017295E0,-4.299802184E-1,4.463901520E-1,2.101937771E0
8.297093962E0,-5.779767036E-1,8.301877975E-1,8.673338890E-1
8.302193493E0,-5.449997783E-1,1.411579132E0,-1.199181557E0
8.307271306E0,-3.638245463E-1,1.513576508E0,-6.363282204E-1
8.312349118E0,-4.859433770E-1,1.525504112E0,-1.264290810E-1
8.317426931E0,-5.263066888E-1,1.581163406E0,-8.142981529E-1
8.322460420E0,-3.436659575E-1,1.321881294E0,-1.232745647E0
8.327535993E0,-2.257692814E-1,9.469184875E-1,-1.397260427E0
8.332611618E0,-1.633555889E-1,7.073144913E-1,-9.438138008E-1
8.337687191E0,-7.537955046E-2,6.072692871E-1,-3.241004944E-1
8.342747191E0,1.083091497E-1,4.332094193E-1,4.402971268E-2
8.347807191E0,2.505292892E-1,1.561994553E-1,5.993213654E-1
8.352867191E0,2.634454370E-1,-6.146907806E-3,8.469166756E-1
8.357927191E0,4.531278014E-1,-3.018140793E-2,8.687357903E-1
8.362987191E0,7.529641986E-1,-8.146142960E-2,8.878445625E-1
8.368047191E0,7.297062874E-1,-3.105354309E-2,9.333343506E-1
8.373107191E0,9.954733253E-1,4.633712769E-2,8.598785400E-1
8.378167191E0,1.212391853E0,-2.976632118E-1,9.823498726E-1
8.383227191E0,1.077934980E0,-6.353502274E-1,1.239942551E0
8.388287191E0,8.962867260E-1,-9.026551247E-1,1.293433666E0
8.393347191E0,8.512296081E-1,-1.118889809E0,1.243334770E0
8.398407191E0,1.102252841E0,-1.125721931E0,1.206011772E0
8.403467191E0,1.446286678E0,-1.025686264E0,1.328819275E0
8.408527191E0,1.710235715E0,-7.753853798E-1,1.512935162E0
8.413587191E0,1.722624302E0,-4.804172516E-1,1.591328144E0
8.418647191E0,1.605364323E0,-1.073951721E-1,1.607406139E0
8.423707191E0,1.499658346E0,4.133830070E-1,1.584681988E0
8.428767191E0,1.184063792E0,8.118562698E-1,1.220962048E0
8.433827191E0,7.237380743E-1,9.214811325E-1,9.027142525E-1
8.438887191E0,3.771556616E-1,8.917818069E-1,8.196620941E-1
8.443947191E0,1.970578432E-1,8.450450897E-1,6.818156242E-1
8.449007191E0,1.544048786E-1,6.858358383E-1,3.190178871E-1
8.454067191E0,2.946677208E-1,4.431486130E-1,1.236524582E-1
8.459127191E0,2.676441669E-1,2.029752731E-1,1.725530624E-1
8.464187191E0,5.350706577E-1,-2.789225578E-1,3.442225456E-1
8.469247191E0,1.015017748E0,-7.370066643E-1,5.433778763E-1
8.474307191E0,8.758686781E-1,-7.554168701E-1,7.823753357E-1
8.479367191E0,8.379971981E-1,-6.215195656E-1,1.391511917E0
8.484427191E0,8.919112682E-1,-7.681956291E-1,1.171600819E0
8.489487191E0,8.719072342E-1,-8.940358162E-1,9.685549736E-1
8.494547191E0,8.605442047E-1,-9.633464813E-1,9.451584816E-1
8.499607191E0,8.393986225E-1,-9.813418388E-1,9.844779968E-1
8.504667191E0,8.064641953E-1,-9.052271843E-1,9.121460915E-1
8.509727191E0,8.416866064E-1,-7.208361626E-1,7.570438385E-1
8.514787191E0,8.421633244E-1,-6.577644348E-1,5.548987389E-1
8.519847191E0,8.564867973E-1,-7.300009727E-1,2.910103798E-1
8.524907191E0,8.760176897E-1,-7.746868134E-1,3.672962189E-1
8.529967191E0,1.131482840E0,-8.393363953E-1,6.873884201E-1
8.535027191E0,1.278971195E0,-5.383195877E-1,9.731469154E-1
8.540087191E0,1.109858632E0,-3.314685822E-1,6.578564644E-1
8.545147191E0,9.993470907E-1,-4.645643234E-1,5.998954773E-1
8.550207191E0,9.648365974E-1,-4.819517136E-1,6.970248222E-1
8.555267191E0,9.494054317E-1,-3.380661011E-1,7.689304352E-1
8.560327191E0,8.406959772E-1,-2.290878296E-1,9.395308495E-1
8.565387191E0,6.166961193E-1,-2.959899902E-1,1.062522411E0
8.570447191E0,4.617258310E-1,-4.048252106E-1,1.004424572E0
8.575507191E0,3.468067646E-1,-4.578981400E-1,7.903304100E-1
8.580567191E0,2.168965340E-1,-5.054855347E-1,5.854058266E-1
8.585627191E0,1.361176968E-1,-3.464374542E-1,4.228258133E-1
8.590687191E0,1.250710487E-1,-7.192325592E-2,1.783013344E-1
8.595747191E0,1.279311180E-1,2.146720886E-3,-1.312837601E-1
8.600807191E0,1.106214523E-1,2.015924454E-1,-3.219735622E-1
8.605867191E0,-6.408447027E-2,4.091558456E-1,-6.955389977E-1
8.610927191E0,-2.854421735E-1,3.116626740E-1,-9.654846191E-1
8.615987191E0,-4.525091350E-1,1.917629242E-1,-9.813270569E-1
8.621047191E0,-5.187987685E-1,1.668472290E-1,-1.138265133E0
8.626107191E0,-4.947630167E-1,1.918554306E-1,-1.332104445E0
8.631167191E0,-3.849173784E-1,2.787742615E-1,-1.395831108E0
8.636227191E0,-2.804274559E-1,3.941316605E-1,-1.346752167E0
8.641287191E0,-2.632696033E-1,1.601657867E-1,-1.195346117E0
8.646347191E0,-4.946790338E-1,-5.879440308E-1,-1.166698933E0
8.651407191E0,-5.549900532E-1,-7.953767776E-1,-9.601273537E-1
8.656467191E0,-4.373549819E-1,-5.349102020E-1,-7.544734478E-1
8.661527191E0,-7.944017053E-1,-9.721746445E-1,-3.797397614E-1
8.666587191E0,-6.222392321E-1,-1.233079910E0,-3.356389999E-1
8.671647191E0,2.864833474E-1,-3.571548462E-1,-3.371214867E-1
8.676707191E0,7.180362940E-1,-1.266059875E-1,1.531243324E-1
8.681767191E0,6.712593436E-1,-6.055393219E-1,2.953932285E-1
8.686827191E0,8.863203526E-1,-1.008341789E0,2.192947865E-1
8.691887191E0,1.370118856E0,-8.563556671E-1,1.828086376E-1
8.696947191E0,1.550218225E0,-4.422321320E-1,1.862127781E-1
8.702007191E0,1.396011710E0,-5.103969574E-1,2.032465935E-1
8.707067191E0,1.083360195E0,-6.822462082E-1,2.561140060E-2
8.712127191E0,8.055204749E-1,-5.529298782E-1,-2.419781685E-1
8.717187191E0,5.347857475E-1,-2.851877213E-1,-6.262032986E-1
8.722247191E0,3.966327906E-1,-1.898288727E-1,-1.043896914E0
8.727307191E0,3.687447906E-1,-2.877140045E-1,-1.326322079E0
8.732367191E0,2.789377570E-1,-4.253587723E-1,-1.574597716E0
8.737427191E0,3.353190422E-1,-2.150077820E-1,-1.758047819E0
8.742487191E0,7.264782190E-1,-6.850719452E-2,-2.128244162E0
8.747547191E0,1.151017904E0,-8.227720261E-1,-2.181487083E0
8.752607191E0,1.347252607E0,-1.048304558E0,-2.158015966E0
8.757667191E0,1.282775879E0,-7.695350647E-1,-2.020329952E0
8.762727191E0,9.457402229E-1,-7.049341202E-1,-1.765806079E0
8.767787191E0,6.751102209E-1,-6.821889877E-1,-1.541926146E0
8.772847191E0,5.771005750E-1,-5.601968765E-1,-1.324027658E0
8.777907191E0,5.579230785E-1,-4.374847412E-1,-1.060826182E0
8.782967191E0,4.982618690E-1,-4.197416306E-1,-6.698236465E-1
8.788027191E0,3.120455146E-1,-7.775936127E-1,-1.882328987E-1
8.793087191E0,3.600698709E-1,-1.001374245E0,6.218814850E-2
8.798147191E0,3.933807015E-1,-1.026930809E0,2.284429073E-1
8.803207191E0,1.778211296E-1,-9.335975647E-1,4.209971428E-1
8.808267191E0,-8.601814508E-2,-8.798227310E-1,4.951369762E-1
8.813327191E0,-1.689999998E-1,-9.398546219E-1,3.270347118E-1
8.818387191E0,-1.835114211E-1,-9.793052673E-1,1.003468037E-1
8.823447191E0,-2.636728883E-1,-1.002580643E0,-1.047079563E-1
8.828507191E0,-3.997735977E-1,-9.207792282E-1,-2.199826241E-1
8.833567191E0,-5.154402852E-1,-8.439073563E-1,-2.485096455E-1
8.838627191E0,-5.222396255E-1,-7.287960052E-1,-3.031632900E-1
8.843687191E0,-9.897251725E-1,-1.316883564E0,-4.182808399E-1
8.848747191E0,-1.737274408E0,-1.552135468E0,-9.046511650E-1
8.853807191E0,-2.999707162E-1,-6.813907623E-2,-4.027912617E-1
8.858867191E0,-1.120402962E-1,-6.305694580E-1,-3.351635933E-1
8.863927191E0,-3.912513256E-1,-7.705345154E-1,-1.858832836E-1
8.868987191E0,-4.401935935E-1,-6.778564453E-1,1.223239899E-1
8.874047191E0,-5.032758117E-1,-6.257343292E-1,4.174952507E-1
8.879107191E0,-6.199721694E-1,-6.429319382E-1,6.067490578E-1
8.884167191E0,-4.273641109E-1,-4.472818375E-1,9.685070515E-1
8.889227191E0,-2.688253224E-1,-5.443983078E-1,1.233660221E0
8.894287191E0,-2.340707481E-1,-6.206617355E-1,1.579791069E0
8.899347191E0,-2.994034588E-1,-5.111989975E-1,1.854242086E0
8.904407191E0,-4.413244724E-1,-3.816003799E-1,2.062769890E0
8.909467191E0,-4.874447584E-1,-3.589115143E-1,2.155883074E0
8.914527191E0,-4.474545717E-1,-4.095010757E-1,2.078745127E0
8.919587191E0,-3.928858638E-1,-4.348287582E-1,1.919063091E0
8.924647191E0,-3.714960515E-1,-3.747177124E-1,1.694929123E0
8.929707191E0,-4.071891308E-1,-2.218198776E-1,1.458261251E0
8.934767191E0,-5.140414238E-1,-4.054927826E-2,1.236885071E0
8.939827191E0,-5.292432308E-1,1.094293594E-1,9.919521809E-1
8.944887191E0,-5.462884903E-1,3.702259064E-2,6.771991253E-1
8.949947191E0,-5.364571214E-1,-5.157375336E-2,3.950550556E-1
8.955007191E0,-5.406651497E-1,-1.968383789E-2,2.450346947E-1
8.960067191E0,-5.686722398E-1,-1.393318176E-3,2.196044922E-1
8.965127191E0,-5.940039158E-1,-2.783203125E-2,2.804288864E-1
8.970187191E0,-5.952437520E-1,-6.562042236E-2,5.020875931E-1
8.975247191E0,-5.915201902E-1,-5.281925201E-2,5.622866154E-1
8.980307191E0,-7.288453579E-1,-4.946327209E-2,7.655992508E-1
8.985367191E0,-1.036787033E0,-3.161821365E-1,5.347900391E-1
8.990427191E0,-1.235305190E0,-8.502082825E-1,3.415796757E-1
8.995487191E0,-8.052489161E-1,-2.875957489E-1,1.038023472E0
9.000547191E0,-7.234371305E-1,6.319808960E-2,1.412610292E0
9.005607191E0,-9.629412889E-1,-2.908592224E-1,1.170589685E0
9.010667191E0,-1.013658524E0,-5.662307739E-1,9.074673653E-1
9.015727191E0,-9.069021940E-1,-5.234279633E-1,7.944357395E-1
9.020787191E0,-8.084785938E-1,-3.685312271E-1,6.923193932E-1
9.025847191E0,-1.091259241E0,-7.214488983E-1,1.684615612E-1
9.030907191E0,-1.278383970E0,-7.674455643E-1,-1.324868202E-2
9.035967191E0,-7.585557699E-1,7.927703857E-2,1.131868362E-1
9.041027191E0,-3.217990398E-1,3.959026337E-1,1.569571495E-1
9.048532035E0,-1.578508168E-1,1.010046005E-1,-1.392602921E-2
9.053610316E0,-1.510805190E-1,-1.807909012E-1,-2.364110947E-1
9.058652452E0,-1.205344684E-2,-6.707668304E-2,-3.378028870E-1
9.063728858E0,1.244669929E-1,1.833105087E-1,-4.022285938E-1
9.068805316E0,-3.919558823E-1,-2.909002304E-1,-1.088453531E0
9.073881723E0,-3.523427844E-1,1.413259506E-1,-1.071095824E0
9.078967295E0,2.360866405E-2,9.091396332E-1,-1.113211989E0
9.084044170E0,3.328943625E-3,1.128767967E0,-1.124281645E0
9.089121045E0,-1.207181364E-1,6.404647827E-1,-1.369417906E0
9.094197920E0,-2.266062945E-1,1.753740311E-1,-1.537028790E0
9.099271306E0,3.757769614E-2,2.504549026E-1,-1.673474312E0
9.104348025E0,2.556024492E-1,-7.527351379E-2,-1.721149564E0
9.109424743E0,3.419053257E-1,-3.296718597E-1,-1.556900501E0
9.114501462E0,9.351993203E-1,3.123579025E-1,-9.886342287E-1
9.119573702E0,9.379398823E-1,4.731740952E-1,-3.102653027E-1
9.124650212E0,4.039130509E-1,7.629203796E-2,2.097187042E-1
9.129726670E0,3.162046894E-2,-1.480350494E-1,4.859592915E-1
9.134803233E0,1.605734602E-2,-2.360601425E-1,7.346117496E-1
9.139880889E0,1.625562012E-1,-1.570014954E-1,1.025586843E0
9.144957400E0,1.911968142E-1,-1.362714767E-1,1.364697933E0
9.150033962E0,5.981896818E-2,-2.579851151E-1,1.432860136E0
9.155110525E0,-7.572978735E-2,-3.137836456E-1,1.373783588E0
9.160170525E0,-6.561189145E-2,-1.361989975E-1,1.366761923E0
9.165230525E0,-1.107064262E-1,-1.969852448E-1,1.084441900E0
9.170290525E0,-2.346081734E-1,-4.237089157E-1,7.507934570E-1
9.175350525E0,-3.898954988E-1,-4.402704239E-1,5.300166607E-1
9.180410525E0,-5.099865198E-1,-3.975515366E-1,3.785333633E-1
9.185470525E0,-5.522367358E-1,-3.696956635E-1,1.882715225E-1
9.190530525E0,-4.616680741E-1,-3.421115875E-1,8.052420616E-2
9.195590525E0,-2.383945882E-1,-4.917163849E-1,5.712819099E-2
9.200650525E0,-8.569232374E-2,-6.460266113E-1,1.347489357E-1
9.205710525E0,-7.661014795E-2,-6.304082870E-1,1.985228062E-1
9.210770525E0,-2.127892375E-1,-4.881696701E-1,2.844839096E-1
9.215830525E0,-3.321473002E-1,-4.350423813E-1,2.165112495E-1
9.220890525E0,-2.731150091E-1,-5.760698318E-1,-1.658973694E-1
9.225950525E0,-3.394691050E-1,-5.397844315E-1,-1.795449257E-1
9.231010525E0,-5.527634621E-1,-4.173078537E-1,-3.034405708E-1
9.236070525E0,-1.086416990E-1,-1.153306961E-1,-4.038954973E-1
9.241130525E0,8.760466427E-2,-2.919635773E-1,-2.228024006E-1
9.246190525E0,1.003753692E-1,-3.391647339E-1,-2.404246330E-1
9.251250525E0,1.755455285E-1,-2.690801620E-1,-2.745804787E-1
9.256310525E0,1.577953249E-1,-3.329591751E-1,-3.472394943E-1
9.261370525E0,2.527102828E-2,-5.257358551E-1,-3.989984989E-1
9.266430525E0,-1.756435931E-1,-4.860134125E-1,-5.421723127E-1
9.271490525E0,8.115079254E-2,-1.533508301E-2,-7.558025122E-1
9.276550525E0,1.473975182E-1,-8.295726776E-2,-5.289623737E-1
9.281610525E0,-8.976249397E-2,-1.237649918E-1,-3.901823759E-1
9.286670525E0,-3.872527480E-1,-1.141223907E-1,-2.256828547E-1
9.291730525E0,-1.326862872E-1,-2.409648895E-1,-3.071163893E-1
9.296790525E0,1.445709616E-1,1.443815231E-1,-7.257225513E-1
9.301850525E0,3.050374687E-1,3.550968170E-1,-8.180828094E-1
9.306910525E0,4.815160930E-1,7.078170776E-2,-9.147970676E-1
9.311970525E0,3.464213610E-1,1.925659180E-2,-1.343171358E0
9.317030525E0,3.005971909E-1,2.023086548E-1,-1.027319908E0
9.322090525E0,2.756319344E-1,2.105770111E-1,-1.023411632E0
9.327150525E0,3.454487920E-1,3.145656586E-1,-1.026916981E0
9.332210525E0,5.916759372E-1,3.249979019E-1,-8.362486362E-1
9.337270525E0,8.486465216E-1,1.535921097E-1,-6.555230618E-1
9.342330525E0,9.463630319E-1,-7.008934021E-2,-6.528142691E-1
9.347390525E0,1.193651080E0,-2.692308426E-1,-5.655723810E-1
9.352450525E0,1.160450339E0,-5.485544205E-1,-1.348536491E0
9.357510525E0,7.254302502E-1,-1.518859863E-1,-1.886135340E0
9.362570525E0,5.736930370E-1,2.641410828E-1,-1.443308592E0
9.367630525E0,4.440292418E-1,2.021217346E-2,-1.275442123E0
9.372690525E0,1.644073278E-1,-4.690876007E-1,-1.441111565E0
9.377750525E0,2.985672653E-2,-8.280305862E-1,-1.520295739E0
9.382810525E0,-9.797425568E-2,-9.299535751E-1,-1.661492109E0
9.387870525E0,-2.250493467E-1,-8.034200668E-1,-1.725280404E0
9.392930525E0,-5.391706824E-1,-6.518869400E-1,-1.953985453E0
9.397990525E0,-1.087754607E0,-4.347143173E-1,-2.098417521E0
9.403050525E0,-1.383361578E0,-1.973552704E-1,-1.921940565E0
9.408110525E0,-1.488760471E0,-8.826255798E-2,-1.637270451E0
9.413170525E0,-1.301014066E0,-2.272367477E-1,-1.336320877E0
9.418230525E0,-8.542647362E-1,-4.564781189E-1,-9.241195917E-1
9.423290525E0,-3.056870699E-1,-6.540603638E-1,-4.669735432E-1
9.428350525E0,1.624725610E-1,-8.487224579E-1,-1.520872116E-2
9.433410525E0,5.943408012E-1,-1.018948555E0,4.719274044E-1
9.438470525E0,6.791181564E-1,-1.248587132E0,8.439967632E-1
9.443530525E0,6.569264531E-1,-1.238430023E0,1.409540176E0
9.448590525E0,5.584064126E-1,-1.113558769E0,1.908848524E0
9.453650525E0,5.052764416E-1,-1.011281013E0,2.337460518E0
9.458710525E0,5.681941509E-1,-8.293218613E-1,2.704491854E0
9.463770525E0,4.569262564E-1,-7.764263153E-1,2.980187178E0
9.468830525E0,3.004746437E-1,-8.073883057E-1,3.120309830E0
9.473890525E0,1.213538647E-1,-7.835321426E-1,3.192538738E0
9.478950525E0,-1.245393157E-1,-6.234121323E-1,3.107909441E0
9.484010525E0,-3.769498467E-1,-4.707736969E-1,2.971951723E0
9.489070525E0,-4.511578083E-1,-3.210105896E-1,3.015043020E0
9.494130525E0,-2.070695311E-1,-2.581148148E-1,3.039509773E0
9.499190525E0,7.120436430E-2,-3.129024506E-1,2.624260664E0
9.504250525E0,3.607053757E-1,-3.100042343E-1,1.919076443E0
9.509310525E0,5.413441658E-1,-2.632799149E-1,1.171458960E0
9.514370525E0,5.256051421E-1,-2.128238678E-1,5.422792435E-1
9.519430525E0,3.495222926E-1,-1.389045715E-1,1.768088341E-2
9.524490525E0,1.537139416E-1,5.461311340E-2,-5.520614386E-1
9.529550525E0,-1.824266911E-1,3.058757782E-1,-1.079772234E0
9.534610525E0,-3.441453874E-1,4.957780838E-1,-1.524230361E0
9.539670525E0,-1.018171906E-1,5.435342789E-1,-1.786931992E0
9.544730525E0,2.989107966E-1,6.050167084E-1,-1.840628386E0
9.549790525E0,6.533046961E-1,6.155061722E-1,-1.843717456E0
9.554850525E0,9.890602827E-1,5.820627213E-1,-1.712583661E0
9.559910525E0,1.281087041E0,6.336917877E-1,-1.454392314E0
9.564970525E0,1.475194335E0,8.009366989E-1,-1.123105526E0
9.570030525E0,1.478371263E0,9.875354767E-1,-6.767346859E-1
9.575090525E0,1.470373511E0,1.157250404E0,-4.683555365E-1
9.580150525E0,1.530427098E0,1.142465591E0,-2.484514713E-1
9.585210525E0,1.455214739E0,1.156184196E0,-1.792507172E-1
9.590270525E0,1.268180370E0,1.155260086E0,-2.720773220E-1
9.595330525E0,1.016718388E0,1.108877182E0,-3.770425320E-1
9.600390525E0,7.847042084E-1,1.000480652E0,-3.681737185E-1
9.605450525E0,5.530160666E-1,8.709030151E-1,-3.682360649E-1
9.610510525E0,2.858928442E-1,8.517665863E-1,-4.277796745E-1
9.615570525E0,-6.019151211E-2,8.856124878E-1,-4.274554253E-1
9.620630525E0,-3.640065193E-1,8.456974030E-1,-5.446082354E-1
9.625690525E0,-4.801901579E-1,7.417478561E-1,-6.284737587E-1
9.630750525E0,-3.707068563E-1,6.551866531E-1,-5.811207294E-1
9.635810525E0,-2.627030611E-1,4.878349304E-1,-4.123679399E-1
9.640870525E0,-2.945052385E-1,3.258056641E-1,-1.771904230E-1
9.645930525E0,-4.396244287E-1,2.455568314E-1,2.906644344E-2
9.650990525E0,-6.741635203E-1,1.608467102E-1,6.060647964E-2
9.656050525E0,-8.264255524E-1,3.352737427E-2,2.427946329E-1
9.661110525E0,-8.419098854E-1,-1.531867981E-1,3.729038239E-1
9.666170525E0,-8.231089711E-1,-3.443164825E-1,5.134370327E-1
9.671230525E0,-7.648059130E-1,-4.801425934E-1,7.076033354E-1
9.676290525E0,-8.202019930E-1,-6.421432495E-1,8.767601252E-1
9.681350525E0,-1.020625234E0,-7.106838226E-1,1.078799009E0
9.686410525E0,-1.227635264E0,-6.954936981E-1,1.197098255E0
9.691470525E0,-1.262560964E0,-6.732311249E-1,1.194111228E0
9.696530525E0,-1.177966356E0,-6.584033966E-1,1.144730330E0
9.701590525E0,-1.011775017E0,-6.008033752E-1,1.113470912E0
9.706650525E0,-7.206017971E-1,-5.148715973E-1,1.004452467E0
9.711710525E0,-5.311919451E-1,-4.342594147E-1,8.514050245E-1
9.716770525E0,-4.839750528E-1,-3.086462021E-1,7.017103434E-1
9.721830525E0,-4.591774344E-1,-2.408466339E-1,5.260094404E-1
9.726890525E0,-5.096138120E-1,-2.426376343E-1,3.453743458E-1
9.731950525E0,-4.986288548E-1,-2.827959061E-1,2.575522661E-1
9.737010525E0,-5.076842308E-1,-3.469028473E-1,1.881941557E-1
9.742070525E0,-5.799337626E-1,-4.062156677E-1,1.535928249E-2
9.747130525E0,-6.290465593E-1,-4.319658279E-1,-1.943026781E-1
9.752190525E0,-7.030323148E-1,-4.193487167E-1,-2.759257555E-1
9.757250525E0,-7.853869200E-1,-3.755531311E-1,-3.133791685E-1
9.762310525E0,-8.861744404E-1,-4.249362946E-1,-3.785967827E-1
9.767370525E0,-8.403519392E-1,-4.932403564E-1,-3.445464373E-1
9.772430525E0,-7.700343132E-1,-4.871921539E-1,-2.469273806E-1
9.777490525E0,-6.801817417E-1,-3.423404694E-1,-1.714887619E-1
9.782550525E0,-4.966856241E-1,-1.689214706E-1,-1.204940081E-1
9.787610525E0,-2.579191327E-1,-9.134197235E-2,-1.204928160E-1
9.792670525E0,-2.103722095E-2,-1.310148239E-1,-1.525127888E-1
9.797730525E0,1.909654140E-1,-1.586608887E-1,-9.957790375E-2
9.802790525E0,3.044387102E-1,-2.197713852E-1,4.044115543E-2
9.807850525E0,3.339352608E-1,-2.784404755E-1,2.030056715E-1
9.812910525E0,3.035182953E-1,-3.156089783E-1,3.097116947E-1
9.817970525E0,1.385540962E-1,-3.193407059E-1,3.108676672E-1
9.823030525E0,-1.327330470E-1,-4.140043259E-1,1.874949932E-1
9.828090525E0,-3.170148730E-1,-5.085163116E-1,1.288679838E-1
9.833150525E0,-3.983055353E-1,-6.386671066E-1,1.180269718E-1
9.838210525E0,-3.502387404E-1,-7.421569824E-1,3.966832161E-2
9.843270525E0,-3.447807431E-1,-8.262071609E-1,-4.649448395E-2
9.848330525E0,-4.916163385E-1,-9.338951111E-1,-1.693650484E-1
9.853390525E0,-6.471445560E-1,-9.479064941E-1,-2.309696674E-1
9.858450525E0,-8.022280931E-1,-9.209232330E-1,-2.769490480E-1
9.863510525E0,-8.617316484E-1,-8.720855713E-1,-2.761996984E-1
9.868570525E0,-8.861829638E-1,-8.780317307E-1,-2.521398067E-1
9.873630525E0,-9.449052215E-1,-8.884792328E-1,-2.238447666E-1
9.878690525E0,-9.587724209E-1,-9.082632065E-1,-1.863211393E-1
9.886204170E0,-9.601698518E-1,-8.843536377E-1,-1.013191938E-1
9.891281045E0,-9.826354980E-1,-8.608255386E-1,-6.091141701E-2
9.896351098E0,-9.534633160E-1,-8.110113144E-1,-6.510019302E-2
9.901427660E0,-8.848599195E-1,-7.158832550E-1,4.926276207E-2
9.906504170E0,-7.936779261E-1,-6.425991058E-1,1.916484833E-1
9.911580681E0,-6.921845078E-1,-5.863199234E-1,2.924994230E-1
9.916663129E0,-6.497504115E-1,-5.494451523E-1,3.973701000E-1
9.921739952E0,-5.177742243E-1,-4.530525208E-1,4.801119566E-1
9.926816775E0,-2.962339818E-1,-4.215841293E-1,4.973495007E-1
9.931893598E0,-1.738652885E-1,-1.654043198E-1,2.764518261E-1
9.936977087E0,-1.432009637E-1,8.562183380E-2,8.990013599E-2
9.942054223E0,-4.609292746E-2,9.002494812E-2,-5.848813057E-2
9.947131358E0,-1.620480418E-2,9.706687927E-2,-1.504133940E-1
9.952208545E0,-3.686499596E-2,1.786556244E-1,-2.392282486E-1
9.957280212E0,-5.104014277E-2,2.461919785E-1,-3.129653931E-1
9.962357087E0,-1.641497016E-1,4.601116180E-1,-2.143243551E-1
9.967433962E0,-2.397283167E-1,4.996023178E-1,-1.562528610E-1
9.972510889E0,-2.111402750E-1,3.097944260E-1,-2.220546007E-1
9.977587504E0,-4.971551895E-2,1.733512878E-1,-2.970432043E-1
9.982664379E0,-6.656461954E-2,1.261529922E-1,-1.517981291E-1
9.987741254E0,-2.937720120E-1,1.944742203E-1,4.095122814E-1
9.992818129E0,-5.020626783E-1,1.746788025E-1,2.578911781E-1
9.997896410E0,-4.458705783E-1,1.190748215E-1,3.578960896E-1
1.000297339E1,-2.472297549E-1,-1.160440445E-1,5.641516447E-1
1.000805032E1,-5.667874217E-2,-2.792139053E-1,6.585938931E-1
1.001312724E1,4.019972682E-2,-2.316684723E-1,7.963411808E-1
1.001820313E1,2.299833596E-1,-8.847808838E-2,1.060948372E0
1.002328006E1,4.258275628E-1,4.753684998E-2,1.162048817E0
1.002835693E1,6.114766598E-1,3.152332306E-1,1.180754423E0
1.003343381E1,7.646762133E-1,5.468521118E-1,1.251471281E0
1.003852813E1,7.182614207E-1,6.896257401E-1,1.257659912E0
1.004360594E1,8.720448017E-1,9.802494049E-1,1.152732611E0
1.004868370E1,1.085664153E0,1.160042763E0,1.183523655E0
1.005376151E1,1.285820246E0,8.773479462E-1,1.565469265E0
1.005884401E1,1.406756163E0,5.564432144E-1,1.687218904E0
1.006392204E1,1.316854954E0,4.655981064E-1,1.646123648E0
1.006900000E1,1.169791460E0,4.848461151E-1,1.562256098E0
1.007407802E1,1.137847185E0,3.818826675E-1,1.431316614E0
1.007913834E1,1.115599155E0,3.721237183E-1,1.248893023E0
1.008421542E1,9.512771964E-1,1.992807388E-1,1.274075985E0
1.008929256E1,5.889304280E-1,-2.346830368E-1,1.007356405E0
1.009436964E1,1.800625324E-1,-3.504276276E-1,4.419829845E-1
1.009943886E1,-5.075412989E-2,-3.397045135E-1,1.858644485E-1
1.010451558E1,-5.736418366E-1,-2.382698059E-1,-4.850525856E-1
1.010959230E1,-9.836547375E-1,-8.444595337E-2,-7.475212812E-1
1.011466901E1,-1.449635625E0,-1.363754272E-4,-1.318147182E0
1.011973828E1,-1.828557730E0,-4.028320312E-2,-1.569747925E0
1.012481464E1,-1.822731495E0,-1.640005112E-1,-1.768619299E0
1.012989099E1,-1.557406664E0,-4.664812088E-1,-2.002687454E0
1.013496735E1,-1.302712798E0,-7.603321075E-1,-1.972731113E0
1.014002735E1,-1.178330421E0,-6.745595932E-1,-2.050616264E0
1.014508735E1,-1.190237641E0,-4.250841141E-1,-2.312227726E0
